time,seconds_elapsed,z,y,x
1746401145714347500,0.052347412109375,1.55515718460083,-3.0616538524627686,1.0555546283721924
1746401145744347600,0.08234765625,1.455920696258545,-2.93615460395813,1.0454587936401367
1746401145754347500,0.092347412109375,1.4202361106872559,-2.90329909324646,1.0418281555175781
1746401145764347600,0.10234765625,1.375070571899414,-2.8700029850006104,1.0476828813552856
1746401145774347500,0.112347412109375,1.34344482421875,-2.847101926803589,1.0263817310333252
1746401145784347600,0.12234765625,1.3168296813964844,-2.8215420246124268,1.0083224773406982
1746401145794347500,0.132347412109375,1.289886474609375,-2.785165548324585,0.9922791123390198
1746401145804347600,0.14234765625,1.2844209671020508,-2.780442476272583,0.9878188967704773
1746401145814347800,0.15234765625,1.2800683975219727,-2.7734081745147705,0.9882274866104126
1746401145824347600,0.16234765625,1.2806892395019531,-2.767275094985962,0.9852219820022583
1746401145834347800,0.17234765625,1.2726850509643555,-2.7562477588653564,0.9795674085617065
1746401145844345600,0.182345703125,1.2995166778564453,-2.7505552768707275,0.980015754699707
1746401145854345500,0.192345458984375,1.3113765716552734,-2.7390682697296143,0.9711654186248779
1746401145864345600,0.202345703125,1.3090581893920898,-2.7350013256073,0.9622462391853333
1746401145874345500,0.212345458984375,1.3001842498779297,-2.7246015071868896,0.9488146305084229
1746401145884345600,0.222345703125,1.2922849655151367,-2.713108777999878,0.9458370804786682
1746401145894345500,0.232345458984375,1.289811134338379,-2.688072443008423,0.9052724838256836
1746401145904345600,0.242345703125,1.2825565338134766,-2.6774327754974365,0.902625322341919
1746401145914345500,0.252345458984375,1.269902229309082,-2.649249792098999,0.8700840473175049
1746401145924345600,0.262345703125,1.2594194412231445,-2.6303250789642334,0.8538463711738586
1746401145934345500,0.272345458984375,1.258112907409668,-2.6083343029022217,0.8377223610877991
1746401145944345600,0.282345703125,1.2516717910766602,-2.578565835952759,0.8217116594314575
1746401145954345500,0.292345458984375,1.2543458938598633,-2.5504586696624756,0.800687313079834
1746401145964345600,0.302345703125,1.258819580078125,-2.516622304916382,0.7841807007789612
1746401145974345500,0.312345458984375,1.2578191757202148,-2.4841082096099854,0.7672598361968994
1746401145984345600,0.322345703125,1.263066291809082,-2.447767972946167,0.7471876740455627
1746401145994345500,0.332345458984375,1.2631711959838867,-2.4178993701934814,0.7275894284248352
1746401146004345600,0.342345703125,1.256525993347168,-2.388396739959717,0.7047558426856995
1746401146014345500,0.352345458984375,1.242985725402832,-2.361384391784668,0.6789740920066833
1746401146024345600,0.362345703125,1.1959352493286133,-2.2876362800598145,0.6364735960960388
1746401146034345500,0.372345458984375,1.1428146362304688,-2.2215652465820312,0.5876752138137817
1746401146044344800,0.3823447265625,1.1093883514404297,-2.167086601257324,0.5826808214187622
1746401146054344700,0.3923447265625,1.037790298461914,-2.0757336616516113,0.4700886905193329
1746401146064344800,0.4023447265625,0.9989137649536133,-2.0010528564453125,0.41429394483566284
1746401146074344700,0.4123447265625,0.967036247253418,-1.9348030090332031,0.3530411720275879
1746401146084344800,0.4223447265625,0.9424724578857422,-1.8656654357910156,0.29258376359939575
1746401146094344700,0.4323447265625,0.91864013671875,-1.801952838897705,0.23723816871643066
1746401146104344600,0.442344482421875,0.8913164138793945,-1.7422637939453125,0.18752145767211914
1746401146114344700,0.4523447265625,0.860809326171875,-1.6848258972167969,0.1364459991455078
1746401146124344800,0.4623447265625,0.8202028274536133,-1.6252732276916504,0.09718978404998779
1746401146134344700,0.4723447265625,0.7694072723388672,-1.5634551048278809,0.058532893657684326
1746401146144345600,0.482345703125,0.722834587097168,-1.5018291473388672,0.018966257572174072
1746401146154345500,0.492345458984375,0.7021217346191406,-1.474832534790039,-0.018237709999084473
1746401146164345600,0.502345703125,0.688873291015625,-1.450838565826416,-0.05352741479873657
1746401146174345500,0.512345458984375,0.6850051879882812,-1.4267044067382812,-0.09051412343978882
1746401146184345600,0.522345703125,0.6854581832885742,-1.4092950820922852,-0.12575507164001465
1746401146194345500,0.532345458984375,0.6903104782104492,-1.3964715003967285,-0.1480470895767212
1746401146204345600,0.542345703125,0.699580192565918,-1.390622615814209,-0.1644880175590515
1746401146214345500,0.552345458984375,0.7114505767822266,-1.3902955055236816,-0.17391043901443481
1746401146224345600,0.562345703125,0.7309722900390625,-1.3958940505981445,-0.1780909299850464
1746401146234345500,0.572345458984375,0.7465019226074219,-1.4029545783996582,-0.17481279373168945
1746401146244344800,0.5823447265625,0.752995491027832,-1.4157295227050781,-0.16616088151931763
1746401146254344700,0.5923447265625,0.750370979309082,-1.431551456451416,-0.16081994771957397
1746401146264344800,0.6023447265625,0.7481756210327148,-1.4430899620056152,-0.16276580095291138
1746401146274344700,0.6123447265625,0.7584152221679688,-1.4551916122436523,-0.16459757089614868
1746401146284344800,0.6223447265625,0.7661075592041016,-1.4644694328308105,-0.17038112878799438
1746401146294344700,0.6323447265625,0.7639474868774414,-1.4756217002868652,-0.1741277575492859
1746401146304344800,0.6423447265625,0.7518997192382812,-1.4886326789855957,-0.1811123490333557
1746401146314344700,0.6523447265625,0.7297706604003906,-1.4982285499572754,-0.18573403358459473
1746401146324344800,0.6623447265625,0.7239799499511719,-1.5021157264709473,-0.18276762962341309
1746401146334344700,0.6723447265625,0.72723388671875,-1.5073180198669434,-0.17509597539901733
1746401146344345600,0.682345703125,0.7346019744873047,-1.5184588432312012,-0.16153335571289062
1746401146354345500,0.692345458984375,0.7438526153564453,-1.5311613082885742,-0.14524227380752563
1746401146364345600,0.702345703125,0.7481098175048828,-1.5460216999053955,-0.13109979033470154
1746401146374345700,0.712345703125,0.7404890060424805,-1.5635039806365967,-0.11570081114768982
1746401146384345600,0.722345703125,0.72857666015625,-1.5795600414276123,-0.10063990950584412
1746401146394345700,0.732345703125,0.7123603820800781,-1.5868642330169678,-0.08963203430175781
1746401146404345300,0.742345458984375,0.6917629241943359,-1.5900580883026123,-0.08731704950332642
1746401146414345200,0.75234521484375,0.6544008255004883,-1.5907399654388428,-0.07974997162818909
1746401146424345300,0.762345458984375,0.6093177795410156,-1.5854341983795166,-0.07172229886054993
1746401146434345200,0.77234521484375,0.5777683258056641,-1.5711085796356201,-0.0628117024898529
1746401146444344300,0.78234423828125,0.5548601150512695,-1.545147180557251,-0.05544513463973999
1746401146454344400,0.792344482421875,0.5381174087524414,-1.5194427967071533,-0.050893306732177734
1746401146464344300,0.80234423828125,0.5203084945678711,-1.4916341304779053,-0.04162028431892395
1746401146474344400,0.812344482421875,0.5024394989013672,-1.4612843990325928,-0.03611704707145691
1746401146484344300,0.82234423828125,0.494232177734375,-1.431030511856079,-0.031377434730529785
1746401146494344400,0.832344482421875,0.48868751525878906,-1.398834466934204,-0.0223730206489563
1746401146504344300,0.84234423828125,0.48809051513671875,-1.3669185638427734,-0.021852344274520874
1746401146514344400,0.852344482421875,0.49721622467041016,-1.3352336883544922,-0.017782777547836304
1746401146524344300,0.86234423828125,0.5089664459228516,-1.301553726196289,-0.022171497344970703
1746401146534344400,0.872344482421875,0.5089950561523438,-1.261131763458252,-0.02820931375026703
1746401146544345300,0.882345458984375,0.49730587005615234,-1.228299617767334,-0.04254472255706787
1746401146554345200,0.89234521484375,0.45949840545654297,-1.1539101600646973,-0.05675327777862549
1746401146564345300,0.902345458984375,0.4197235107421875,-1.0673656463623047,-0.07435338199138641
1746401146574345200,0.91234521484375,0.39705753326416016,-0.9852759838104248,-0.09723770618438721
1746401146584345300,0.922345458984375,0.3920135498046875,-0.8992743492126465,-0.1236056387424469
1746401146594345200,0.93234521484375,0.38381385803222656,-0.8280413150787354,-0.14564970135688782
1746401146604344300,0.94234423828125,0.37215518951416016,-0.7638890743255615,-0.16960181295871735
1746401146614344400,0.952344482421875,0.3642873764038086,-0.7142491340637207,-0.19267787039279938
1746401146624344300,0.96234423828125,0.36316967010498047,-0.6685798168182373,-0.21512889862060547
1746401146634344400,0.972344482421875,0.3780088424682617,-0.6357345581054688,-0.23781652748584747
1746401146644343600,0.982343505859375,0.3630790710449219,-0.5985019207000732,-0.2322755604982376
1746401146654343700,0.99234375,0.44750308990478516,-0.5996778011322021,-0.2611578106880188
1746401146664343600,1.002343505859375,0.49713993072509766,-0.5865440368652344,-0.2633648216724396
1746401146674343400,1.012343505859375,0.5622682571411133,-0.5783958435058594,-0.2522047162055969
1746401146684343600,1.022343505859375,0.6382522583007812,-0.5709311962127686,-0.23748290538787842
1746401146694343400,1.032343505859375,0.7252626419067383,-0.5767250061035156,-0.20617665350437164
1746401146704343800,1.04234375,0.8095684051513672,-0.6001074314117432,-0.17169563472270966
1746401146714344000,1.052343994140625,0.8761911392211914,-0.6419291496276855,-0.12910422682762146
1746401146724343800,1.06234375,0.9226846694946289,-0.6924066543579102,-0.08648936450481415
1746401146734344000,1.072343994140625,0.9440736770629883,-0.7413327693939209,-0.050290726125240326
1746401146744344800,1.0823447265625,0.9665384292602539,-0.7929532527923584,0.0004082918167114258
1746401146754345000,1.092344970703125,0.9852914810180664,-0.8304498195648193,0.0519024021923542
1746401146764345000,1.102344970703125,0.9880867004394531,-0.8603229522705078,0.08761259913444519
1746401146774345000,1.112344970703125,0.9628257751464844,-0.8822617530822754,0.10204298049211502
1746401146784345000,1.122344970703125,0.9374608993530273,-0.9250767230987549,0.0952659621834755
1746401146794345000,1.132344970703125,0.9004917144775391,-0.9517135620117188,0.07261296361684799
1746401146804345000,1.142344970703125,0.8728742599487305,-0.965437650680542,0.03396933525800705
1746401146814345000,1.152344970703125,0.87103271484375,-0.9750535488128662,-0.006562575697898865
1746401146824345000,1.162344970703125,0.8970775604248047,-0.9871809482574463,-0.03734144568443298
1746401146834345000,1.172344970703125,0.9439067840576172,-1.0070366859436035,-0.051640093326568604
1746401146844344000,1.182343994140625,0.9927968978881836,-1.0335040092468262,-0.04885096848011017
1746401146854344200,1.19234423828125,1.0394353866577148,-1.060638189315796,-0.03133724629878998
1746401146864344300,1.20234423828125,1.0776844024658203,-1.0958497524261475,-0.008760735392570496
1746401146874344200,1.21234423828125,1.112091064453125,-1.1261889934539795,0.01229754090309143
1746401146884344300,1.22234423828125,1.142465591430664,-1.1534523963928223,0.023890286684036255
1746401146894344200,1.23234423828125,1.1541748046875,-1.1864714622497559,0.03667692840099335
1746401146904345000,1.242344970703125,1.1539859771728516,-1.2217869758605957,0.0490172803401947
1746401146914345000,1.252344970703125,1.148789405822754,-1.2610442638397217,0.05515812337398529
1746401146924345000,1.262344970703125,1.1357202529907227,-1.303110122680664,0.06274265050888062
1746401146934345000,1.272344970703125,1.1434059143066406,-1.3214333057403564,0.06720620393753052
1746401146944345900,1.282345947265625,1.1116743087768555,-1.3894402980804443,0.06732340902090073
1746401146954346000,1.292345947265625,1.079472541809082,-1.4465525150299072,0.07198116183280945
1746401146964345900,1.302345947265625,1.0305137634277344,-1.508274793624878,0.09277545660734177
1746401146974345700,1.312345703125,0.9603605270385742,-1.5706164836883545,0.11561806499958038
1746401146984345600,1.322345703125,0.8812704086303711,-1.634207010269165,0.14282938838005066
1746401146994345700,1.332345703125,0.7838344573974609,-1.6850314140319824,0.16742344200611115
1746401147004345300,1.342345458984375,0.6774406433105469,-1.7274153232574463,0.1887470930814743
1746401147014345500,1.352345458984375,0.5642948150634766,-1.7561094760894775,0.2089359015226364
1746401147024345300,1.362345458984375,0.43936729431152344,-1.76578688621521,0.2322603017091751
1746401147034345500,1.372345458984375,0.30678367614746094,-1.7621545791625977,0.2507787346839905
1746401147044344600,1.382344482421875,0.17604541778564453,-1.7497837543487549,0.2677268981933594
1746401147054344200,1.39234423828125,0.0636129379272461,-1.723233699798584,0.27338892221450806
1746401147064344300,1.40234423828125,-0.011323928833007812,-1.685096263885498,0.2643710970878601
1746401147074344200,1.41234423828125,-0.05826282501220703,-1.6382148265838623,0.24314138293266296
1746401147084344300,1.42234423828125,-0.08697700500488281,-1.58491849899292,0.2069748044013977
1746401147094344200,1.43234423828125,-0.11687755584716797,-1.5273032188415527,0.16129258275032043
1746401147104344300,1.44234423828125,-0.1410379409790039,-1.4676251411437988,0.10521075129508972
1746401147114344200,1.45234423828125,-0.14619827270507812,-1.4105274677276611,0.042002350091934204
1746401147124344300,1.46234423828125,-0.13685035705566406,-1.346952199935913,-0.015305429697036743
1746401147134344200,1.47234423828125,-0.11317634582519531,-1.2884366512298584,-0.061914026737213135
1746401147144345000,1.482344970703125,-0.08017539978027344,-1.236891508102417,-0.10759314894676208
1746401147154345200,1.49234521484375,-0.040276527404785156,-1.1921730041503906,-0.14977827668190002
1746401147164345000,1.502344970703125,-0.0009508132934570312,-1.1583185195922852,-0.18773871660232544
1746401147174345200,1.51234521484375,-0.0003528594970703125,-1.1618165969848633,-0.212686687707901
1746401147184345000,1.522344970703125,0.07446479797363281,-1.105229377746582,-0.272672176361084
1746401147194344700,1.5323447265625,0.10189342498779297,-1.0805459022521973,-0.32077836990356445
1746401147208506600,1.546506591796875,0.11080074310302734,-1.054527759552002,-0.365800142288208
1746401147218506800,1.5565068359375,0.09871482849121094,-1.0198569297790527,-0.41006338596343994
1746401147228506600,1.566506591796875,0.07512950897216797,-0.9739773273468018,-0.4558106064796448
1746401147238506800,1.5765068359375,0.03744792938232422,-0.9236738681793213,-0.4984705448150635
1746401147248505900,1.586505859375,-0.007198333740234375,-0.8712794780731201,-0.5364466905593872
1746401147258506000,1.596506103515625,-0.058861732482910156,-0.8095738887786865,-0.5779795050621033
1746401147268505900,1.606505859375,-0.10798835754394531,-0.7457070350646973,-0.6137115359306335
1746401147278506200,1.61650634765625,-0.1378622055053711,-0.6844215393066406,-0.6470209360122681
1746401147288506000,1.626506103515625,-0.15125656127929688,-0.6249780654907227,-0.6842086315155029
1746401147298506200,1.63650634765625,-0.15104389190673828,-0.5736117362976074,-0.7174801826477051
1746401147308506400,1.64650634765625,-0.14459800720214844,-0.5371334552764893,-0.743200957775116
1746401147318506200,1.65650634765625,-0.12229061126708984,-0.5108296871185303,-0.7638174295425415
1746401147328506400,1.66650634765625,-0.09101581573486328,-0.4904487133026123,-0.7785565853118896
1746401147338506200,1.67650634765625,-0.040683746337890625,-0.47222447395324707,-0.7961481809616089
1746401147348507100,1.686507080078125,0.02464771270751953,-0.4672505855560303,-0.8118884563446045
1746401147358507300,1.69650732421875,0.07168102264404297,-0.46875643730163574,-0.815133810043335
1746401147368507100,1.706507080078125,0.11469650268554688,-0.4788820743560791,-0.8146670460700989
1746401147378507300,1.71650732421875,0.15858840942382812,-0.48347020149230957,-0.8042175769805908
1746401147388507100,1.726507080078125,0.1886615753173828,-0.4770243167877197,-0.7908234000205994
1746401147398507300,1.73650732421875,0.20212078094482422,-0.4682729244232178,-0.7649051547050476
1746401147408507100,1.746507080078125,0.1985301971435547,-0.4586966037750244,-0.7258402705192566
1746401147418507300,1.75650732421875,0.17776203155517578,-0.44332146644592285,-0.6791739463806152
1746401147428507100,1.766507080078125,0.14428424835205078,-0.42402005195617676,-0.6310333013534546
1746401147438507300,1.77650732421875,0.10546875,-0.3964560031890869,-0.5776162147521973
1746401147448506400,1.78650634765625,0.06358623504638672,-0.36040592193603516,-0.5316610932350159
1746401147458506200,1.79650634765625,0.018950462341308594,-0.3213062286376953,-0.4965425133705139
1746401147468506400,1.80650634765625,-0.023662567138671875,-0.2815079689025879,-0.46611344814300537
1746401147478506200,1.81650634765625,-0.06632518768310547,-0.23924970626831055,-0.42751824855804443
1746401147488506400,1.82650634765625,-0.11116790771484375,-0.1926259994506836,-0.38963979482650757
1746401147498506800,1.8365068359375,-0.16046428680419922,-0.14182806015014648,-0.3492249548435211
1746401147508507000,1.8465068359375,-0.2114238739013672,-0.09479427337646484,-0.3174668550491333
1746401147518506800,1.8565068359375,-0.2665557861328125,-0.04413461685180664,-0.2931632399559021
1746401147528507000,1.8665068359375,-0.31668758392333984,0.00146484375,-0.2764277160167694
1746401147538506800,1.8765068359375,-0.35251426696777344,0.033019065856933594,-0.26727718114852905
1746401147548507600,1.886507568359375,-0.3670825958251953,0.060639381408691406,-0.2730080485343933
1746401147558507500,1.896507568359375,-0.37491893768310547,0.07507991790771484,-0.2834484279155731
1746401147568507600,1.906507568359375,-0.39499855041503906,0.08554887771606445,-0.288565456867218
1746401147578507500,1.916507568359375,-0.4195280075073242,0.10025215148925781,-0.29627013206481934
1746401147588507600,1.926507568359375,-0.43857479095458984,0.12291097640991211,-0.3047969937324524
1746401147598507500,1.936507568359375,-0.4478168487548828,0.15449857711791992,-0.3172116279602051
1746401147608507600,1.946507568359375,-0.44784069061279297,0.19394588470458984,-0.3278660476207733
1746401147618507500,1.956507568359375,-0.42938995361328125,0.23961782455444336,-0.33089470863342285
1746401147628507600,1.966507568359375,-0.3901710510253906,0.27985191345214844,-0.3274323046207428
1746401147638507500,1.976507568359375,-0.3398923873901367,0.31498241424560547,-0.32285451889038086
1746401147648507000,1.9865068359375,-0.2926454544067383,0.33252954483032227,-0.31036490201950073
1746401147658506800,1.9965068359375,-0.24809646606445312,0.34133005142211914,-0.294160395860672
1746401147668506600,2.006506591796875,-0.2153148651123047,0.34479427337646484,-0.28556951880455017
1746401147678506800,2.0165068359375,-0.19507884979248047,0.34488344192504883,-0.26790428161621094
1746401147688506600,2.026506591796875,-0.19153881072998047,0.3372511863708496,-0.26560473442077637
1746401147698506800,2.0365068359375,-0.22919654846191406,0.3468656539916992,-0.1935349702835083
1746401147708506600,2.046506591796875,-0.2559232711791992,0.34364986419677734,-0.151182621717453
1746401147718506800,2.0565068359375,-0.28608036041259766,0.33715152740478516,-0.10914355516433716
1746401147728506600,2.066506591796875,-0.31293392181396484,0.34395503997802734,-0.0858180820941925
1746401147738506800,2.0765068359375,-0.33357715606689453,0.34754180908203125,-0.07544443011283875
1746401147748507600,2.086507568359375,-0.35494136810302734,0.35230064392089844,-0.061234623193740845
1746401147758507500,2.096507568359375,-0.3714008331298828,0.35454607009887695,-0.05467668175697327
1746401147768507600,2.106507568359375,-0.38501453399658203,0.35608816146850586,-0.052190765738487244
1746401147778507500,2.116507568359375,-0.4026479721069336,0.35867834091186523,-0.05624185502529144
1746401147788507600,2.126507568359375,-0.41711902618408203,0.36470746994018555,-0.06929735839366913
1746401147798507500,2.136507568359375,-0.43340587615966797,0.38411426544189453,-0.09993387758731842
1746401147808506600,2.146506591796875,-0.4254264831542969,0.3934803009033203,-0.12717504799365997
1746401147818506800,2.1565068359375,-0.35735130310058594,0.37388134002685547,-0.12317915260791779
1746401147828506600,2.166506591796875,-0.24527645111083984,0.32443666458129883,-0.10151976346969604
1746401147838506800,2.1765068359375,-0.07037067413330078,0.25309228897094727,-0.07180514931678772
1746401147848505900,2.186505859375,-0.08031558990478516,0.27455997467041016,-0.043743133544921875
1746401147858505700,2.196505615234375,0.42777442932128906,0.08922243118286133,-0.021971959620714188
1746401147868505900,2.206505859375,0.6922311782836914,-0.026802539825439453,-0.0030918288975954056
1746401147878506000,2.216506103515625,0.9889402389526367,-0.18209552764892578,0.029245126992464066
1746401147888505900,2.226505859375,1.2642822265625,-0.3506920337677002,0.059510502964258194
1746401147898506000,2.236506103515625,1.4865989685058594,-0.5293307304382324,0.08025255054235458
1746401147908505900,2.246505859375,1.63043212890625,-0.7017219066619873,0.09172182530164719
1746401147918505700,2.256505615234375,1.6652774810791016,-0.8698759078979492,0.08743526041507721
1746401147928505900,2.266505859375,1.6037883758544922,-1.028864860534668,0.08139726519584656
1746401147938505700,2.276505615234375,1.472696304321289,-1.1584830284118652,0.04765082895755768
1746401147948506600,2.286506591796875,1.3293914794921875,-1.253575325012207,-0.013009392656385899
1746401147958506800,2.2965068359375,1.1686925888061523,-1.3004822731018066,-0.10653910040855408
1746401147968506600,2.306506591796875,0.9920759201049805,-1.3105418682098389,-0.22347113490104675
1746401147978506800,2.3165068359375,0.7959604263305664,-1.299668550491333,-0.3620752692222595
1746401147988506600,2.326506591796875,0.604832649230957,-1.280343770980835,-0.50751793384552
1746401147998506800,2.3365068359375,0.44356250762939453,-1.261437177658081,-0.6626633405685425
1746401148008506600,2.346506591796875,0.3493022918701172,-1.2359950542449951,-0.8134027719497681
1746401148018506800,2.3565068359375,0.33323001861572266,-1.2149326801300049,-0.9631160497665405
1746401148028506600,2.366506591796875,0.38030147552490234,-1.2000715732574463,-1.10184645652771
1746401148038506800,2.3765068359375,0.49523162841796875,-1.2209193706512451,-1.2140675783157349
1746401148048505900,2.386505859375,0.6426229476928711,-1.2840404510498047,-1.2994203567504883
1746401148058505700,2.396505615234375,0.8237838745117188,-1.3806164264678955,-1.3506743907928467
1746401148068505900,2.406505859375,1.0019035339355469,-1.498300313949585,-1.399033784866333
1746401148078505700,2.416505615234375,1.1575641632080078,-1.6327075958251953,-1.43135666847229
1746401148088505900,2.426505859375,1.27044677734375,-1.7761330604553223,-1.4462698698043823
1746401148098505700,2.436505615234375,1.329549789428711,-1.9180837869644165,-1.4432830810546875
1746401148108506600,2.446506591796875,1.3355073928833008,-2.0453133583068848,-1.4353070259094238
1746401148118506800,2.4565068359375,1.2857913970947266,-2.133596420288086,-1.420089602470398
1746401148128506600,2.466506591796875,1.2039051055908203,-2.1893510818481445,-1.4050151109695435
1746401148138506800,2.4765068359375,1.0887603759765625,-2.1790151596069336,-1.3941874504089355
1746401148148507400,2.48650732421875,0.9488258361816406,-2.114122152328491,-1.376206874847412
1746401148158507500,2.496507568359375,0.7844390869140625,-2.0139641761779785,-1.3525956869125366
1746401148168507400,2.50650732421875,0.6141443252563477,-1.9059548377990723,-1.3113669157028198
1746401148178507500,2.516507568359375,0.4379081726074219,-1.7973829507827759,-1.2575936317443848
1746401148188507400,2.52650732421875,0.27031898498535156,-1.6937649250030518,-1.1954315900802612
1746401148198507500,2.536507568359375,0.09722423553466797,-1.5933191776275635,-1.1253312826156616
1746401148208506600,2.546506591796875,-0.0762166976928711,-1.494610071182251,-1.0518766641616821
1746401148218506500,2.556506591796875,-0.24493694305419922,-1.4054620265960693,-0.9859657883644104
1746401148228506600,2.566506591796875,-0.4061918258666992,-1.3243391513824463,-0.9252386093139648
1746401148238506500,2.576506591796875,-0.5596532821655273,-1.2472987174987793,-0.8774958848953247
1746401148248505900,2.586505859375,-0.7103748321533203,-1.1664717197418213,-0.8498631715774536
1746401148258505700,2.596505615234375,-0.8515033721923828,-1.0810019969940186,-0.8395906686782837
1746401148268505900,2.606505859375,-0.9759187698364258,-0.9953794479370117,-0.8374320864677429
1746401148278505700,2.616505615234375,-1.0767593383789062,-0.9016005992889404,-0.8425321578979492
1746401148288505900,2.626505859375,-1.0731840133666992,-0.9108531475067139,-0.8550188541412354
1746401148298505700,2.636505615234375,-1.1763906478881836,-0.6987252235412598,-0.8610029220581055
1746401148308505900,2.646505859375,-1.1825675964355469,-0.5955057144165039,-0.8710008859634399
1746401148318505700,2.656505615234375,-1.1483802795410156,-0.5025002956390381,-0.8758739233016968
1746401148328505900,2.666505859375,-1.0859618186950684,-0.4239535331726074,-0.863273024559021
1746401148338505700,2.676505615234375,-1.0042896270751953,-0.3467874526977539,-0.838057279586792
1746401148348506600,2.686506591796875,-0.9096136093139648,-0.27306342124938965,-0.815488338470459
1746401148358506800,2.6965068359375,-0.8057289123535156,-0.1931312084197998,-0.7936119437217712
1746401148368506600,2.706506591796875,-0.6989812850952148,-0.11623978614807129,-0.7706325054168701
1746401148378506800,2.7165068359375,-0.7085390090942383,-0.09171748161315918,-0.8001680374145508
1746401148388506600,2.726506591796875,-0.4812450408935547,0.025658130645751953,-0.7020925283432007
1746401148398506800,2.7365068359375,-0.3864707946777344,0.09144473075866699,-0.6604276895523071
1746401148408507000,2.7465068359375,-0.3023386001586914,0.15407586097717285,-0.6166031956672668
1746401148418506800,2.7565068359375,-0.22194766998291016,0.2214818000793457,-0.5765610933303833
1746401148428506600,2.766506591796875,-0.1407003402709961,0.2893834114074707,-0.5428146123886108
1746401148438506800,2.7765068359375,-0.0659799575805664,0.3559143543243408,-0.5149316787719727
1746401148448505900,2.786505859375,-0.000087738037109375,0.41843557357788086,-0.4857131242752075
1746401148458506000,2.796506103515625,0.04999351501464844,0.4763607978820801,-0.46350860595703125
1746401148468505900,2.806505859375,0.08736419677734375,0.5299830436706543,-0.4407180845737457
1746401148478506000,2.816506103515625,0.12354660034179688,0.5779809951782227,-0.41941651701927185
1746401148488505900,2.826505859375,0.16095256805419922,0.6274740695953369,-0.4072052836418152
1746401148498506000,2.836506103515625,0.2087554931640625,0.6868777275085449,-0.3964184820652008
1746401148508506600,2.846506591796875,0.25470542907714844,0.7476065158843994,-0.3800238072872162
1746401148518506800,2.8565068359375,0.3153200149536133,0.8057456016540527,-0.3573324978351593
1746401148528506600,2.866506591796875,0.32137393951416016,0.7938897609710693,-0.38651153445243835
1746401148538506800,2.8765068359375,0.45038318634033203,0.8933160305023193,-0.2862544059753418
1746401148548507600,2.886507568359375,0.5190258026123047,0.9175808429718018,-0.24816647171974182
1746401148558507500,2.896507568359375,0.5607194900512695,0.9386630058288574,-0.2074826955795288
1746401148568507600,2.906507568359375,0.5828828811645508,0.9607114791870117,-0.1697198450565338
1746401148578507500,2.916507568359375,0.5901317596435547,0.986443281173706,-0.14272856712341309
1746401148588507600,2.926507568359375,0.5845756530761719,1.0090970993041992,-0.1387450098991394
1746401148598507500,2.936507568359375,0.6013422012329102,0.9776771068572998,-0.18512701988220215
1746401148608507600,2.946507568359375,0.574711799621582,1.035578727722168,-0.2345592975616455
1746401148618507500,2.956507568359375,0.6063098907470703,1.0277633666992188,-0.32775455713272095
1746401148628507600,2.966507568359375,0.6545629501342773,1.007483959197998,-0.4324125349521637
1746401148638507500,2.976507568359375,0.7414989471435547,0.9596786499023438,-0.541843056678772
1746401148648506600,2.986506591796875,0.8424835205078125,0.9049630165100098,-0.6579920053482056
1746401148658506800,2.9965068359375,0.9524354934692383,0.872248649597168,-0.7834457755088806
1746401148668506600,3.006506591796875,1.1071529388427734,0.8413074016571045,-0.8743510246276855
1746401148678506800,3.0165068359375,1.3140506744384766,0.8033170700073242,-0.9117951393127441
1746401148688506600,3.026506591796875,1.5382843017578125,0.7450673580169678,-0.933292031288147
1746401148698506800,3.0365068359375,1.7501821517944336,0.660546064376831,-0.9460151791572571
1746401148708506600,3.046506591796875,1.9095306396484375,0.5594415664672852,-0.9460814595222473
1746401148718506800,3.0565068359375,2.0038528442382812,0.4218590259552002,-0.9251695871353149
1746401148728506600,3.066506591796875,2.0165205001831055,0.2628326416015625,-0.895127534866333
1746401148738506800,3.0765068359375,1.9330434799194336,0.0787818431854248,-0.8602283000946045
1746401148748507600,3.086507568359375,1.7724838256835938,-0.1096811294555664,-0.8279791474342346
1746401148758507500,3.096507568359375,1.536992073059082,-0.2857680320739746,-0.8088567852973938
1746401148768507600,3.106507568359375,1.2603130340576172,-0.4333508014678955,-0.7825788259506226
1746401148778507500,3.116507568359375,0.9576101303100586,-0.5580332279205322,-0.7438047528266907
1746401148788507600,3.126507568359375,0.6974201202392578,-0.6590588092803955,-0.6715810894966125
1746401148798507500,3.136507568359375,0.5029258728027344,-0.7466027736663818,-0.5845735669136047
1746401148808506600,3.146506591796875,0.38036060333251953,-0.8197433948516846,-0.4801655113697052
1746401148818506800,3.1565068359375,0.33733081817626953,-0.888674259185791,-0.37341588735580444
1746401148828506600,3.166506591796875,0.3424949645996094,-0.9543323516845703,-0.276790052652359
1746401148838506800,3.1765068359375,0.3880758285522461,-1.0563722848892212,-0.17170730233192444
1746401148848505900,3.186505859375,0.37755680084228516,-1.1286941766738892,-0.06145913153886795
1746401148858505700,3.196505615234375,0.34137439727783203,-1.2143027782440186,0.08794954419136047
1746401148868505900,3.206505859375,0.31539440155029297,-1.3113656044006348,0.22992968559265137
1746401148878506000,3.216506103515625,0.2736635208129883,-1.3971186876296997,0.38716161251068115
1746401148888505900,3.226505859375,0.20096302032470703,-1.4606438875198364,0.5153264999389648
1746401148898506000,3.236506103515625,0.0913400650024414,-1.50253427028656,0.6056721806526184
1746401148908505900,3.246505859375,-0.05134868621826172,-1.5105071067810059,0.6613801121711731
1746401148918505700,3.256505615234375,-0.22352027893066406,-1.4864394664764404,0.6931133270263672
1746401148928505900,3.266505859375,-0.4233827590942383,-1.4461902379989624,0.6937375068664551
1746401148938505700,3.276505615234375,-0.6423835754394531,-1.382718563079834,0.6702830791473389
1746401148948506600,3.286506591796875,-0.8669815063476562,-1.304537296295166,0.6392574310302734
1746401148958506800,3.2965068359375,-1.0837211608886719,-1.2199203968048096,0.5917691588401794
1746401148968506600,3.306506591796875,-1.0843000411987305,-1.2193078994750977,0.6495696306228638
1746401148978506800,3.3165068359375,-1.3898658752441406,-1.021658182144165,0.4929370582103729
1746401148988506600,3.326506591796875,-1.467979907989502,-0.9043004512786865,0.43748971819877625
1746401148998506800,3.3365068359375,-1.4928817749023438,-0.7895371913909912,0.38420382142066956
1746401149008505900,3.346505859375,-1.480679988861084,-0.6818645000457764,0.34709274768829346
1746401149018505700,3.356505615234375,-1.4352517127990723,-0.5772480964660645,0.3250011205673218
1746401149028505900,3.366505859375,-1.3748998641967773,-0.4892871379852295,0.3034282922744751
1746401149038505700,3.376505615234375,-1.2894034385681152,-0.41295838356018066,0.2699395716190338
1746401149048504800,3.3865048828125,-1.2047653198242188,-0.3544473648071289,0.23939985036849976
1746401149058505000,3.3965048828125,-1.128030776977539,-0.304746150970459,0.20807072520256042
1746401149068504800,3.4065048828125,-1.0712614059448242,-0.27535009384155273,0.1735559105873108
1746401149078505000,3.4165048828125,-1.022608757019043,-0.24863123893737793,0.14204294979572296
1746401149088504800,3.4265048828125,-0.9753866195678711,-0.22506189346313477,0.10477393865585327
1746401149098505000,3.4365048828125,-0.9183111190795898,-0.19512343406677246,0.06633439660072327
1746401149108505900,3.446505859375,-0.8480463027954102,-0.16152095794677734,0.032800525426864624
1746401149118505700,3.456505615234375,-0.7697582244873047,-0.12788009643554688,0.006840229034423828
1746401149128505900,3.466505859375,-0.6980171203613281,-0.09351706504821777,-0.00866246223449707
1746401149138505700,3.476505615234375,-0.6183099746704102,-0.05863833427429199,-0.013891607522964478
1746401149148506600,3.486506591796875,-0.542144775390625,-0.017289161682128906,-0.014246463775634766
1746401149158506800,3.4965068359375,-0.4760313034057617,0.028600454330444336,-0.020379170775413513
1746401149168506600,3.506506591796875,-0.4070148468017578,0.0761113166809082,-0.0212327241897583
1746401149178506800,3.5165068359375,-0.3416919708251953,0.12576031684875488,-0.02671876549720764
1746401149188506600,3.526506591796875,-0.27870655059814453,0.18050456047058105,-0.03904324769973755
1746401149198506800,3.5365068359375,-0.23062419891357422,0.24160265922546387,-0.052890121936798096
1746401149208506600,3.546506591796875,-0.1928720474243164,0.3022282123565674,-0.07370805740356445
1746401149218506800,3.5565068359375,-0.1657857894897461,0.3632199764251709,-0.09595385193824768
1746401149228506600,3.566506591796875,-0.14734840393066406,0.41845202445983887,-0.1157349944114685
1746401149238506800,3.5765068359375,-0.1402425765991211,0.4687955379486084,-0.1237235963344574
1746401149248505900,3.586505859375,-0.13013172149658203,0.5096480846405029,-0.1333981156349182
1746401149258505700,3.596505615234375,-0.11708259582519531,0.5461697578430176,-0.13865801692008972
1746401149268505900,3.606505859375,-0.10106563568115234,0.5760164260864258,-0.14083778858184814
1746401149278505700,3.616505615234375,-0.09448528289794922,0.6031465530395508,-0.13554152846336365
1746401149288505900,3.626505859375,-0.08306503295898438,0.6255733966827393,-0.114063560962677
1746401149298505700,3.636505615234375,-0.0621337890625,0.643791913986206,-0.0892406702041626
1746401149308506600,3.646506591796875,-0.027170181274414062,0.6586229801177979,-0.0655442476272583
1746401149318506800,3.6565068359375,0.01668071746826172,0.6662678718566895,-0.04153144359588623
1746401149328506600,3.666506591796875,0.07190418243408203,0.6687750816345215,-0.012957632541656494
1746401149338506800,3.6765068359375,0.14094829559326172,0.6636135578155518,0.017980754375457764
1746401149348507400,3.68650732421875,0.22378253936767578,0.6557042598724365,0.04675865173339844
1746401149358507500,3.696507568359375,0.3160114288330078,0.641334056854248,0.07672148942947388
1746401149368507600,3.706507568359375,0.4132556915283203,0.6192176342010498,0.10244758427143097
1746401149378507500,3.716507568359375,0.4892759323120117,0.6058230400085449,0.11903132498264313
1746401149388507600,3.726507568359375,0.527801513671875,0.6117942333221436,0.1252424418926239
1746401149398507500,3.736507568359375,0.5652990341186523,0.6241004467010498,0.12302497029304504
1746401149408507000,3.7465068359375,0.6328039169311523,0.6387777328491211,0.12743079662322998
1746401149418506800,3.7565068359375,0.7555379867553711,0.6542377471923828,0.157201886177063
1746401149428506600,3.766506591796875,0.9567031860351562,0.6615490913391113,0.20678529143333435
1746401149438506800,3.7765068359375,1.2685346603393555,0.6485891342163086,0.2580376863479614
1746401149448505900,3.786505859375,1.6557550430297852,0.6118383407592773,0.28791218996047974
1746401149458506000,3.796506103515625,2.091135025024414,0.5198595523834229,0.3113546371459961
1746401149468505900,3.806505859375,2.07083797454834,0.5735595226287842,0.2541276812553406
1746401149478506000,3.816506103515625,2.9336585998535156,0.14693117141723633,0.4249873161315918
1746401149488505900,3.826505859375,3.195890426635742,-0.12301969528198242,0.504094123840332
1746401149498506000,3.836506103515625,3.299105644226074,-0.424821138381958,0.591634213924408
1746401149508505900,3.846505859375,3.2651329040527344,-0.7246956825256348,0.6599803566932678
1746401149518506000,3.856506103515625,3.1015491485595703,-0.9803987741470337,0.6871353387832642
1746401149528505900,3.866505859375,2.8529014587402344,-1.176369071006775,0.6641075015068054
1746401149538506000,3.876506103515625,2.4891796112060547,-1.3015797138214111,0.6030747890472412
1746401149548506600,3.886506591796875,2.4996376037597656,-1.3356354236602783,0.6473104953765869
1746401149558506800,3.8965068359375,1.5133867263793945,-1.378063440322876,0.4380441904067993
1746401149568506600,3.906506591796875,0.9799280166625977,-1.3396426439285278,0.35446733236312866
1746401149578506800,3.9165068359375,0.46971988677978516,-1.2575058937072754,0.29100358486175537
1746401149588506600,3.926506591796875,0.02577972412109375,-1.155312418937683,0.25318050384521484
1746401149598506800,3.9365068359375,-0.32985973358154297,-1.052642583847046,0.2546289563179016
1746401149608507000,3.9465068359375,-0.5931816101074219,-0.9654204845428467,0.2872440814971924
1746401149618506800,3.9565068359375,-0.5952682495117188,-0.949516773223877,0.3388051986694336
1746401149628507000,3.9665068359375,-0.8146085739135742,-0.8777368068695068,0.35991817712783813
1746401149638506800,3.9765068359375,-0.7453546524047852,-0.8868842124938965,0.38058632612228394
1746401149648505900,3.986505859375,-0.6447744369506836,-0.9361958503723145,0.4199768900871277
1746401149658506000,3.996506103515625,-0.5562000274658203,-1.0252221822738647,0.4664093852043152
1746401149668505900,4.006505859375,-0.4861459732055664,-1.1491918563842773,0.5010175704956055
1746401149678506000,4.016506103515625,-0.4382820129394531,-1.2982735633850098,0.5501142144203186
1746401149688505900,4.026505859375,-0.4118356704711914,-1.4449986219406128,0.6080474853515625
1746401149698506000,4.036506103515625,-0.4068441390991211,-1.5672399997711182,0.6677494049072266
1746401149708506600,4.046506591796875,-0.4166374206542969,-1.648794412612915,0.7097153663635254
1746401149718506800,4.0565068359375,-0.4565544128417969,-1.6961019039154053,0.7352327704429626
1746401149728506600,4.066506591796875,-0.537745475769043,-1.7306385040283203,0.7458302974700928
1746401149738506800,4.0765068359375,-0.6783685684204102,-1.7506382465362549,0.7503997087478638
1746401149748507600,4.086507568359375,-0.8494338989257812,-1.7589911222457886,0.7645317316055298
1746401149758507500,4.096507568359375,-1.0270891189575195,-1.7461127042770386,0.7662272453308105
1746401149768507600,4.106507568359375,-1.1852169036865234,-1.7089213132858276,0.7541440725326538
1746401149778507500,4.116507568359375,-1.324307918548584,-1.646111011505127,0.7273290157318115
1746401149788507600,4.126507568359375,-1.4376544952392578,-1.5685492753982544,0.6977288126945496
1746401149798507500,4.136507568359375,-1.5230469703674316,-1.4760183095932007,0.670034646987915
1746401149808507600,4.146507568359375,-1.5588479042053223,-1.3809845447540283,0.6472069621086121
1746401149818507500,4.156507568359375,-1.5637907981872559,-1.3592731952667236,0.6841976046562195
1746401149828507600,4.166507568359375,-1.4625024795532227,-1.1574187278747559,0.6070697903633118
1746401149838507500,4.176507568359375,-1.3368678092956543,-1.049534797668457,0.5971264839172363
1746401149848506600,4.186506591796875,-1.3489165306091309,-1.011969804763794,0.5980940461158752
1746401149858506800,4.1965068359375,-1.0522689819335938,-0.8895909786224365,0.6381992697715759
1746401149868506600,4.206506591796875,-0.9031314849853516,-0.8285727500915527,0.6713767647743225
1746401149878506800,4.2165068359375,-0.7570409774780273,-0.7638692855834961,0.7081000804901123
1746401149888506600,4.226506591796875,-0.6304473876953125,-0.6864824295043945,0.7485819458961487
1746401149898506800,4.2365068359375,-0.5208930969238281,-0.601346492767334,0.7866899371147156
1746401149908506600,4.246506591796875,-0.43244171142578125,-0.5155801773071289,0.8304286003112793
1746401149918506800,4.2565068359375,-0.37133312225341797,-0.4270973205566406,0.8785555362701416
1746401149928506600,4.266506591796875,-0.3332643508911133,-0.3414478302001953,0.9097806811332703
1746401149938506800,4.2765068359375,-0.30910682678222656,-0.2570016384124756,0.9345402717590332
1746401149948507600,4.286507568359375,-0.2824974060058594,-0.17464542388916016,0.9471029043197632
1746401149958507500,4.296507568359375,-0.23929595947265625,-0.10543107986450195,0.9394211769104004
1746401149968507600,4.306507568359375,-0.1751270294189453,-0.05525469779968262,0.9306710958480835
1746401149978507500,4.316507568359375,-0.0903635025024414,-0.008681774139404297,0.9224227666854858
1746401149988507600,4.326507568359375,0.011288642883300781,0.03857588768005371,0.9290105104446411
1746401149998507500,4.336507568359375,0.1666889190673828,0.07607197761535645,0.9392558336257935
1746401150008507600,4.346507568359375,0.3569002151489258,0.10774111747741699,0.9613277316093445
1746401150018507500,4.356507568359375,0.5654697418212891,0.13461852073669434,0.9826511144638062
1746401150028507600,4.366507568359375,0.7713279724121094,0.15010571479797363,0.9987694025039673
1746401150038507500,4.376507568359375,0.9679660797119141,0.1521010398864746,1.0082058906555176
1746401150048506600,4.386506591796875,1.158224105834961,0.13959431648254395,1.0124599933624268
1746401150058506800,4.3965068359375,1.3301105499267578,0.11750936508178711,1.0077191591262817
1746401150068506600,4.406506591796875,1.3257770538330078,0.13074898719787598,0.9920608997344971
1746401150078506800,4.4165068359375,1.5086326599121094,0.1212613582611084,0.9352525472640991
1746401150088506600,4.426506591796875,1.5052204132080078,0.13244080543518066,0.927820086479187
1746401150098506800,4.4365068359375,1.5647430419921875,0.20507216453552246,0.8701225519180298
1746401150108506600,4.446506591796875,1.6698541641235352,0.22166776657104492,0.8654914498329163
1746401150118506800,4.4565068359375,1.8095932006835938,0.21733474731445312,0.8390303254127502
1746401150128506600,4.466506591796875,1.9465160369873047,0.21068787574768066,0.7846338152885437
1746401150138506800,4.4765068359375,2.098483085632324,0.20824790000915527,0.7088215351104736
1746401150148507600,4.486507568359375,2.2481689453125,0.2113511562347412,0.6367723345756531
1746401150158507500,4.496507568359375,2.384608268737793,0.20293259620666504,0.5929759740829468
1746401150168507400,4.50650732421875,2.485177993774414,0.1944112777709961,0.5815798044204712
1746401150178507500,4.516507568359375,2.542236328125,0.16092681884765625,0.5945111513137817
1746401150188507400,4.52650732421875,2.56015682220459,0.09282827377319336,0.6306999921798706
1746401150198507500,4.536507568359375,2.507020950317383,-0.019620656967163086,0.6655901074409485
1746401150208507400,4.54650732421875,2.4917774200439453,0.05357980728149414,0.6698802709579468
1746401150218507500,4.556507568359375,2.2445240020751953,-0.31730687618255615,0.644480288028717
1746401150228507400,4.56650732421875,2.055318832397461,-0.4692866802215576,0.6012649536132812
1746401150238507500,4.576507568359375,1.8327512741088867,-0.5934596061706543,0.5263974666595459
1746401150248506600,4.586506591796875,1.5834054946899414,-0.6916940212249756,0.4373975992202759
1746401150258506800,4.5965068359375,1.3089475631713867,-0.7605962753295898,0.3480672240257263
1746401150268506600,4.606506591796875,1.0276241302490234,-0.8104028701782227,0.28261494636535645
1746401150278506800,4.6165068359375,0.7286853790283203,-0.8555798530578613,0.28140124678611755
1746401150288506600,4.626506591796875,0.42289257049560547,-0.9108495712280273,0.3427079916000366
1746401150298506800,4.6365068359375,0.12884998321533203,-0.9885056018829346,0.4443637728691101
1746401150308506600,4.646506591796875,-0.12029552459716797,-1.066249132156372,0.5426278710365295
1746401150318506800,4.6565068359375,-0.3317718505859375,-1.1178743839263916,0.626240611076355
1746401150328506600,4.666506591796875,-0.5059003829956055,-1.1490626335144043,0.6743448376655579
1746401150338506800,4.6765068359375,-0.6596307754516602,-1.1705999374389648,0.6888559460639954
1746401150348507600,4.686507568359375,-0.8027467727661133,-1.2027095556259155,0.6704965829849243
1746401150358507500,4.696507568359375,-0.9424047470092773,-1.2401050329208374,0.6314249038696289
1746401150368507600,4.706507568359375,-1.0728845596313477,-1.280957579612732,0.5778040289878845
1746401150378507500,4.716507568359375,-1.2064533233642578,-1.3240282535552979,0.5144110918045044
1746401150388507600,4.726507568359375,-1.329970359802246,-1.354567289352417,0.4467153251171112
1746401150398507500,4.736507568359375,-1.4167242050170898,-1.3557097911834717,0.3648330867290497
1746401150408507600,4.746507568359375,-1.4789600372314453,-1.3169060945510864,0.2816599905490875
1746401150418507500,4.756507568359375,-1.514538288116455,-1.2470611333847046,0.20211035013198853
1746401150428507600,4.766507568359375,-1.5259184837341309,-1.1629281044006348,0.14079368114471436
1746401150438507500,4.776507568359375,-1.5174236297607422,-1.0616337060928345,0.08684223890304565
1746401150448506600,4.786506591796875,-1.4886159896850586,-0.9524034261703491,0.04866915941238403
1746401150458506800,4.7965068359375,-1.4534382820129395,-0.8348953723907471,0.018957793712615967
1746401150468506600,4.806506591796875,-1.4138126373291016,-0.7172518968582153,-0.003270447254180908
1746401150478506800,4.8165068359375,-1.4192638397216797,-0.6882089376449585,0.02782219648361206
1746401150488506600,4.826506591796875,-1.2949485778808594,-0.4801182746887207,-0.0502619743347168
1746401150498506800,4.8365068359375,-1.2183656692504883,-0.3580331802368164,-0.08525323867797852
1746401150508506600,4.846506591796875,-1.1444149017333984,-0.24202871322631836,-0.11915814876556396
1746401150518506800,4.8565068359375,-1.073380470275879,-0.1454916000366211,-0.1615818738937378
1746401150528506600,4.866506591796875,-1.0101165771484375,-0.0581972599029541,-0.21125102043151855
1746401150538506800,4.8765068359375,-0.9450178146362305,0.027676820755004883,-0.2755666971206665
1746401150548507600,4.886507568359375,-0.8852777481079102,0.11529421806335449,-0.340495765209198
1746401150558507500,4.896507568359375,-0.8208417892456055,0.20154285430908203,-0.4166015386581421
1746401150568507600,4.906507568359375,-0.7681674957275391,0.28337550163269043,-0.4875088334083557
1746401150578507500,4.916507568359375,-0.7149181365966797,0.36206746101379395,-0.5516552329063416
1746401150588507600,4.926507568359375,-0.6606645584106445,0.4410715103149414,-0.607105553150177
1746401150598507500,4.936507568359375,-0.5931682586669922,0.5312345027923584,-0.648669958114624
1746401150608507600,4.946507568359375,-0.5147428512573242,0.6200954914093018,-0.6742784976959229
1746401150618507500,4.956507568359375,-0.4039115905761719,0.6980290412902832,-0.6874350905418396
1746401150628507600,4.966507568359375,-0.26064300537109375,0.778050422668457,-0.6919115781784058
1746401150638507500,4.976507568359375,-0.09546089172363281,0.8569521903991699,-0.7048069834709167
1746401150648506600,4.986506591796875,0.07244586944580078,0.9118473529815674,-0.72284996509552
1746401150658506800,4.9965068359375,0.24345779418945312,0.9264965057373047,-0.7368247509002686
1746401150668506600,5.006506591796875,0.40125179290771484,0.9168205261230469,-0.739208459854126
1746401150678506800,5.0165068359375,0.5462150573730469,0.8851227760314941,-0.7283844947814941
1746401150688506600,5.026506591796875,0.6828641891479492,0.8388955593109131,-0.7028272747993469
1746401150698506800,5.0365068359375,0.8205900192260742,0.7806334495544434,-0.6645929217338562
1746401150708506600,5.046506591796875,0.9428014755249023,0.7171218395233154,-0.6022962927818298
1746401150718506800,5.0565068359375,1.0296602249145508,0.6526088714599609,-0.5385407209396362
1746401150728506600,5.066506591796875,1.0813732147216797,0.5808115005493164,-0.4705374836921692
1746401150738506800,5.0765068359375,1.1247711181640625,0.5188825130462646,-0.3926735520362854
1746401150748507400,5.08650732421875,1.1786441802978516,0.47999000549316406,-0.30756139755249023
1746401150758507500,5.096507568359375,1.3398771286010742,0.44307589530944824,-0.20578503608703613
1746401150768507400,5.10650732421875,1.6499271392822266,0.3914620876312256,-0.06492376327514648
1746401150778507500,5.116507568359375,2.134611129760742,0.32840394973754883,0.09696686267852783
1746401150788507400,5.12650732421875,2.6893558502197266,0.26727747917175293,0.2046588659286499
1746401150798507500,5.136507568359375,3.241288185119629,0.16237902641296387,0.2874440550804138
1746401150808507600,5.146507568359375,3.697610855102539,-0.020936965942382812,0.38689953088760376
1746401150818507500,5.156507568359375,3.9942550659179688,-0.2996103763580322,0.5228632092475891
1746401150828507600,5.166507568359375,4.09799861907959,-0.6201374530792236,0.6527115106582642
1746401150838507500,5.176507568359375,3.981250762939453,-0.9276912808418274,0.7653408050537109
1746401150848506600,5.186506591796875,3.7033090591430664,-1.1765499114990234,0.82972252368927
1746401150858506800,5.1965068359375,3.3053159713745117,-1.3499692678451538,0.8387259244918823
1746401150868506600,5.206506591796875,2.838033676147461,-1.471954107284546,0.8327111601829529
1746401150878506800,5.2165068359375,2.2756786346435547,-1.542790174484253,0.8117833733558655
1746401150888506600,5.226506591796875,1.6543607711791992,-1.5782012939453125,0.7915055751800537
1746401150898506800,5.2365068359375,1.0036144256591797,-1.5746893882751465,0.7753055095672607
1746401150908506600,5.246506591796875,0.3869342803955078,-1.54468834400177,0.7750633955001831
1746401150918506800,5.2565068359375,-0.1773853302001953,-1.4904148578643799,0.7912725806236267
1746401150928506600,5.266506591796875,-0.6639404296875,-1.4169411659240723,0.8095066547393799
1746401150938506800,5.2765068359375,-1.0519275665283203,-1.333146572113037,0.8363983631134033
1746401150948507400,5.28650732421875,-1.335484504699707,-1.23585844039917,0.8487606048583984
1746401150958507500,5.296507568359375,-1.4902639389038086,-1.1354526281356812,0.841395378112793
1746401150968507400,5.30650732421875,-1.5332045555114746,-1.0528212785720825,0.8083348274230957
1746401150978507500,5.316507568359375,-1.5174751281738281,-1.0239813327789307,0.7948805093765259
1746401150988507400,5.32650732421875,-1.4706521034240723,-1.0473339557647705,0.7971515655517578
1746401150998507500,5.336507568359375,-1.3912239074707031,-1.1183093786239624,0.8098875284194946
1746401151008507400,5.34650732421875,-1.3063039779663086,-1.2056764364242554,0.8298376798629761
1746401151018507500,5.356507568359375,-1.2267036437988281,-1.2960882186889648,0.8636131286621094
1746401151028507400,5.36650732421875,-1.1410760879516602,-1.3778703212738037,0.9075223803520203
1746401151038507500,5.376507568359375,-1.0406408309936523,-1.4328758716583252,0.9419077038764954
1746401151058506800,5.3965068359375,-0.851771354675293,-1.444465160369873,0.9561209678649902
1746401151088506600,5.426506591796875,-0.8412799835205078,-1.35661780834198,1.0185086727142334
1746401151098506800,5.4365068359375,-0.8742218017578125,-1.2870590686798096,1.0287634134292603
1746401151108506600,5.446506591796875,-0.9075565338134766,-1.1873818635940552,1.0270748138427734
1746401151118506800,5.4565068359375,-0.9358024597167969,-1.0666627883911133,1.0183147192001343
1746401151128506600,5.466506591796875,-0.9396181106567383,-0.9379333257675171,0.9994791150093079
1746401151138506800,5.4765068359375,-0.9160451889038086,-0.801129937171936,0.9727891087532043
1746401151148507600,5.486507568359375,-0.8790750503540039,-0.6749355792999268,0.9424629211425781
1746401151158507500,5.496507568359375,-0.8519144058227539,-0.5601637363433838,0.9182809591293335
1746401151168507600,5.506507568359375,-0.8290157318115234,-0.4550931453704834,0.8947412967681885
1746401151178507500,5.516507568359375,-0.8000717163085938,-0.3527350425720215,0.8607237935066223
1746401151188507600,5.526507568359375,-0.7738428115844727,-0.25513553619384766,0.8245865106582642
1746401151198507500,5.536507568359375,-0.7446956634521484,-0.15459585189819336,0.7787368893623352
1746401151208507600,5.546507568359375,-0.7061891555786133,-0.0632929801940918,0.7314515113830566
1746401151218507500,5.556507568359375,-0.649174690246582,0.015875577926635742,0.6860239505767822
1746401151228507600,5.566507568359375,-0.5807390213012695,0.06867480278015137,0.650834858417511
1746401151238507500,5.576507568359375,-0.5075502395629883,0.11077213287353516,0.6161254644393921
1746401151248506600,5.586506591796875,-0.43146705627441406,0.1410999298095703,0.5893872380256653
1746401151258506800,5.5965068359375,-0.35210323333740234,0.16852474212646484,0.5633695125579834
1746401151268506600,5.606506591796875,-0.35298919677734375,0.16617202758789062,0.544474184513092
1746401151278506800,5.6165068359375,-0.1620473861694336,0.2370743751525879,0.5111510753631592
1746401151288506600,5.626506591796875,-0.040660858154296875,0.26735544204711914,0.47834312915802
1746401151298506800,5.6365068359375,-0.041739463806152344,0.2645225524902344,0.4533880352973938
1746401151338506800,5.6765068359375,0.7848825454711914,0.21332120895385742,0.3805025517940521
1746401151348507400,5.68650732421875,0.9557771682739258,0.17792344093322754,0.3570833206176758
1746401151358507500,5.696507568359375,1.1224403381347656,0.14421677589416504,0.32637834548950195
1746401151368507600,5.706507568359375,1.2849607467651367,0.11194992065429688,0.289672315120697
1746401151378507500,5.716507568359375,1.438490867614746,0.08592581748962402,0.24681395292282104
1746401151388507600,5.726507568359375,1.5589170455932617,0.06894803047180176,0.19240137934684753
1746401151398507500,5.736507568359375,1.626821517944336,0.09536361694335938,0.12632745504379272
1746401151408508000,5.7465078125,1.7332687377929688,0.11975884437561035,0.09217742085456848
1746401151418507800,5.7565078125,1.887716293334961,0.09244394302368164,0.10886873304843903
1746401151428508000,5.7665078125,2.039752960205078,0.03847503662109375,0.13739916682243347
1746401151438507800,5.7765078125,2.181015968322754,-0.026894330978393555,0.16501975059509277
1746401151448507000,5.7865068359375,2.3106861114501953,-0.0811760425567627,0.17295192182064056
1746401151458507000,5.796507080078125,2.368950843811035,-0.15688157081604004,0.18345673382282257
1746401151468507000,5.8065068359375,2.3546972274780273,-0.2620213031768799,0.1913447082042694
1746401151478507000,5.816507080078125,2.267289161682129,-0.3901047706604004,0.19277890026569366
1746401151488507000,5.8265068359375,2.096799850463867,-0.5151796340942383,0.2045310139656067
1746401151498507000,5.836507080078125,1.8283271789550781,-0.6179062128067017,0.20320706069469452
1746401151508507000,5.8465068359375,1.5160388946533203,-0.7118237018585205,0.21449066698551178
1746401151518507000,5.856507080078125,1.2048444747924805,-0.7931619882583618,0.215807244181633
1746401151528507000,5.8665068359375,0.9090061187744141,-0.8344753980636597,0.2130720019340515
1746401151538507000,5.876507080078125,0.6200666427612305,-0.8350950479507446,0.1978510320186615
1746401151548508000,5.8865078125,0.36270618438720703,-0.8263610601425171,0.16937559843063354
1746401151558507800,5.8965078125,0.1282510757446289,-0.8313404321670532,0.1411607265472412
1746401151568508000,5.9065078125,-0.0823974609375,-0.8489552736282349,0.12414181232452393
1746401151578507800,5.9165078125,-0.2849769592285156,-0.8602932691574097,0.12487155199050903
1746401151588508000,5.9265078125,-0.48039913177490234,-0.8771518468856812,0.141789972782135
1746401151598507800,5.9365078125,-0.6699314117431641,-0.8752245903015137,0.17554855346679688
1746401151608508000,5.9465078125,-0.8411064147949219,-0.857398271560669,0.20278918743133545
1746401151618507800,5.9565078125,-0.9861431121826172,-0.813193678855896,0.23297494649887085
1746401151628508000,5.9665078125,-1.0898370742797852,-0.755511999130249,0.2529497742652893
1746401151638507800,5.9765078125,-1.159524917602539,-0.6806312799453735,0.26727864146232605
1746401151648507000,5.9865068359375,-1.1955795288085938,-0.5991454124450684,0.2738661468029022
1746401151658507000,5.996507080078125,-1.1984539031982422,-0.5073091983795166,0.2769463062286377
1746401151668507000,6.0065068359375,-1.1790332794189453,-0.41030097007751465,0.2637408673763275
1746401151678507000,6.016507080078125,-1.1488313674926758,-0.3315556049346924,0.24656683206558228
1746401151688507000,6.0265068359375,-1.1245002746582031,-0.2762751579284668,0.22875043749809265
1746401151698507000,6.036507080078125,-1.1057443618774414,-0.2499086856842041,0.19932568073272705
1746401151708506600,6.046506591796875,-1.089935302734375,-0.2362222671508789,0.1669696867465973
1746401151718506800,6.0565068359375,-1.0650959014892578,-0.2088468074798584,0.12223309278488159
1746401151728506600,6.066506591796875,-1.0337553024291992,-0.16263389587402344,0.07335063815116882
1746401151738506800,6.0765068359375,-0.996063232421875,-0.11159467697143555,0.02208542823791504
1746401151748507400,6.08650732421875,-0.9570865631103516,-0.054296016693115234,-0.01988944411277771
1746401151758507500,6.096507568359375,-0.9018611907958984,0.0013208389282226562,-0.06050717830657959
1746401151768507600,6.106507568359375,-0.8349723815917969,0.0540919303894043,-0.09602293372154236
1746401151778507500,6.116507568359375,-0.7727575302124023,0.09705638885498047,-0.12309157848358154
1746401151788507600,6.126507568359375,-0.7148294448852539,0.14019441604614258,-0.14182895421981812
1746401151798507500,6.136507568359375,-0.6607646942138672,0.18149876594543457,-0.15132278203964233
1746401151808506600,6.146506591796875,-0.6127109527587891,0.21739912033081055,-0.1616673469543457
1746401151818506800,6.1565068359375,-0.5776948928833008,0.24248433113098145,-0.17023861408233643
1746401151828506600,6.166506591796875,-0.5645723342895508,0.25391387939453125,-0.18502646684646606
1746401151838506800,6.1765068359375,-0.5838584899902344,0.2680854797363281,-0.2067965269088745
1746401151848505900,6.186505859375,-0.6046085357666016,0.2862732410430908,-0.24025356769561768
1746401151858505700,6.196505615234375,-0.6295528411865234,0.3125436305999756,-0.2716565728187561
1746401151868505900,6.206505859375,-0.6231765747070312,0.291001558303833,-0.2669643759727478
1746401151878506000,6.216506103515625,-0.6888246536254883,0.3905613422393799,-0.34619849920272827
1746401151888505900,6.226505859375,-0.7067337036132812,0.4436345100402832,-0.38395506143569946
1746401151898506000,6.236506103515625,-0.6938924789428711,0.5251471996307373,-0.4165445566177368
1746401151908505900,6.246505859375,-0.6273126602172852,0.6185770034790039,-0.446696400642395
1746401151918505700,6.256505615234375,-0.49768829345703125,0.6996245384216309,-0.4484456777572632
1746401151928505900,6.266505859375,-0.31493663787841797,0.7397053241729736,-0.41148239374160767
1746401151938505700,6.276505615234375,-0.07170867919921875,0.7376818656921387,-0.33098649978637695
1746401151948506600,6.286506591796875,0.19449234008789062,0.6881802082061768,-0.23992806673049927
1746401151958506800,6.2965068359375,0.4511241912841797,0.6024048328399658,-0.1345425844192505
1746401151968506600,6.306506591796875,0.6658096313476562,0.4919474124908447,-0.024201512336730957
1746401151978506800,6.3165068359375,0.8058109283447266,0.3509209156036377,0.09626123309135437
1746401151988506600,6.326506591796875,0.8729076385498047,0.18760275840759277,0.21312588453292847
1746401151998506800,6.3365068359375,0.8540496826171875,0.03319048881530762,0.3154010772705078
1746401152008506600,6.346506591796875,0.8638525009155273,-0.0005517005920410156,0.3042524456977844
1746401152018506800,6.3565068359375,0.6624975204467773,-0.09597206115722656,0.35873234272003174
1746401152028506600,6.366506591796875,0.5581388473510742,-0.1039888858795166,0.3354502320289612
1746401152038507000,6.376507080078125,0.5135774612426758,-0.09198260307312012,0.2983916997909546
1746401152048506000,6.386506103515625,0.5530948638916016,-0.07826566696166992,0.27073806524276733
1746401152058506200,6.39650634765625,0.5589132308959961,-0.07800650596618652,0.35737496614456177
1746401152068506000,6.406506103515625,0.9804849624633789,-0.09978127479553223,0.2995598316192627
1746401152078506200,6.41650634765625,1.362553596496582,-0.1516726016998291,0.3324924111366272
1746401152088506000,6.426506103515625,1.3346385955810547,-0.06353235244750977,0.31702762842178345
1746401152098506200,6.43650634765625,2.2530345916748047,-0.41763973236083984,0.42620202898979187
1746401152108507100,6.446507080078125,2.630885124206543,-0.6481196880340576,0.4694541394710541
1746401152118507000,6.456507080078125,2.848703384399414,-0.9156888723373413,0.5175624489784241
1746401152128507100,6.466507080078125,2.8989086151123047,-1.1807596683502197,0.5552347898483276
1746401152138507000,6.476507080078125,2.767120361328125,-1.4265360832214355,0.573692798614502
1746401152148508000,6.4865078125,2.528430938720703,-1.646397590637207,0.592400848865509
1746401152158508000,6.496508056640625,2.2463178634643555,-1.8035855293273926,0.5885238647460938
1746401152168508000,6.5065078125,1.930882453918457,-1.8858144283294678,0.5859491229057312
1746401152178508000,6.516508056640625,1.5530996322631836,-1.8909549713134766,0.5797724723815918
1746401152188508000,6.5265078125,1.1486635208129883,-1.8543264865875244,0.5750401616096497
1746401152198508000,6.536508056640625,0.7440805435180664,-1.8106822967529297,0.583389163017273
1746401152208508000,6.5465078125,0.7638339996337891,-1.8730638027191162,0.6161491870880127
1746401152218508000,6.556508056640625,0.04778861999511719,-1.7414050102233887,0.6692346334457397
1746401152228508000,6.5665078125,-0.2151346206665039,-1.7065753936767578,0.7239287495613098
1746401152238508000,6.576508056640625,-0.406524658203125,-1.6750379800796509,0.7874342203140259
1746401152248507100,6.586507080078125,-0.5357370376586914,-1.6583420038223267,0.8469331860542297
1746401152258507000,6.596507080078125,-0.6020994186401367,-1.6692017316818237,0.9095198512077332
1746401152268507100,6.606507080078125,-0.6310815811157227,-1.689857840538025,0.9539364576339722
1746401152278507000,6.616507080078125,-0.6205883026123047,-1.7163732051849365,0.9699139595031738
1746401152288507100,6.626507080078125,-0.629669189453125,-1.6934144496917725,0.9189372062683105
1746401152298507000,6.636507080078125,-0.5237522125244141,-1.7278411388397217,0.9579139947891235
1746401152308507100,6.646507080078125,-0.4817638397216797,-1.7207090854644775,0.9560277462005615
1746401152318507000,6.656507080078125,-0.44785022735595703,-1.707050085067749,0.9754847288131714
1746401152328507100,6.666507080078125,-0.43834495544433594,-1.676713228225708,0.998950719833374
1746401152338506800,6.6765068359375,-0.4794607162475586,-1.6091501712799072,1.0107282400131226
1746401152348507600,6.686507568359375,-0.5569705963134766,-1.5115553140640259,1.01167893409729
1746401152358507500,6.696507568359375,-0.6782979965209961,-1.3882765769958496,1.0104345083236694
1746401152368087300,6.70608740234375,-0.8223161697387695,-1.2501252889633179,1.0069621801376343
1746401152378087200,6.716087158203125,-0.9821033477783203,-1.098597764968872,0.9984122514724731
1746401152388087300,6.72608740234375,-1.134007453918457,-0.9520635604858398,0.9857699871063232
1746401152398087200,6.736087158203125,-1.2738456726074219,-0.7988055944442749,0.9736605882644653
1746401152408087300,6.74608740234375,-1.3904104232788086,-0.6483776569366455,0.9536306858062744
1746401152418087200,6.756087158203125,-1.4771275520324707,-0.49660468101501465,0.9265998005867004
1746401152428087300,6.76608740234375,-1.5272798538208008,-0.349184513092041,0.8873279094696045
1746401152438087200,6.776087158203125,-1.53145170211792,-0.21045231819152832,0.8378942012786865
1746401152448086500,6.78608642578125,-1.5089635848999023,-0.09176492691040039,0.7925270199775696
1746401152458086400,6.79608642578125,-1.4450945854187012,0.0034644603729248047,0.7352089285850525
1746401152468086300,6.806086181640625,-1.3469085693359375,0.09676814079284668,0.6742925643920898
1746401152478086400,6.81608642578125,-1.2060117721557617,0.18689680099487305,0.6033391356468201
1746401152488086300,6.826086181640625,-1.0339527130126953,0.27000975608825684,0.5346852540969849
1746401152498086400,6.83608642578125,-0.8184480667114258,0.3423807621002197,0.46997007727622986
1746401152508086300,6.846086181640625,-0.5808200836181641,0.4005396366119385,0.4177955985069275
1746401152518086400,6.85608642578125,-0.33036041259765625,0.44061899185180664,0.38127267360687256
1746401152528086300,6.866086181640625,-0.07875823974609375,0.47330784797668457,0.3474765419960022
1746401152538086400,6.87608642578125,0.16710948944091797,0.4973938465118408,0.32571226358413696
1746401152548087300,6.88608740234375,0.39141082763671875,0.5045218467712402,0.3180491626262665
1746401152558087200,6.896087158203125,0.5983104705810547,0.5025672912597656,0.31793904304504395
1746401152568087300,6.90608740234375,0.7805051803588867,0.49231624603271484,0.31223317980766296
1746401152578087200,6.916087158203125,0.9402036666870117,0.48438215255737305,0.29770627617836
1746401152588087300,6.92608740234375,1.0695571899414062,0.4766719341278076,0.2798768877983093
1746401152598087200,6.936087158203125,1.1705865859985352,0.46352458000183105,0.2648733854293823
1746401152608086300,6.946086181640625,1.2478313446044922,0.44118666648864746,0.2525635063648224
1746401152618086400,6.95608642578125,1.303696632385254,0.4216012954711914,0.22361060976982117
1746401152628086500,6.96608642578125,1.340224266052246,0.40616321563720703,0.18891900777816772
1746401152638086400,6.97608642578125,1.3738203048706055,0.4004809856414795,0.13651251792907715
1746401152648085500,6.98608544921875,1.4090166091918945,0.39571213722229004,0.08136362582445145
1746401152658085600,6.996085693359375,1.4457502365112305,0.3799304962158203,0.016779065132141113
1746401152668085500,7.00608544921875,1.462693214416504,0.37615370750427246,-0.0657990425825119
1746401152688085500,7.02608544921875,1.4819755554199219,0.4279148578643799,-0.22614654898643494
1746401152698085400,7.03608544921875,1.559152603149414,0.4197673797607422,-0.2611321210861206
1746401152708085500,7.04608544921875,1.6678361892700195,0.38073086738586426,-0.2715725302696228
1746401152728085500,7.06608544921875,1.8608980178833008,0.28528785705566406,-0.2872883677482605
1746401152738085400,7.07608544921875,1.8481502532958984,0.32993102073669434,-0.3009454309940338
1746401152748086000,7.0860859375,1.8677959442138672,0.264052152633667,-0.29640519618988037
1746401152758086000,7.0960859375,1.7592735290527344,-0.06688404083251953,-0.27404746413230896
1746401152768086000,7.1060859375,1.608464241027832,-0.2193899154663086,-0.26618674397468567
1746401152778086000,7.1160859375,1.3524141311645508,-0.34537482261657715,-0.2795087993144989
1746401152788086000,7.1260859375,1.0401268005371094,-0.4564422369003296,-0.2902704179286957
1746401152798087000,7.1360869140625,0.6997900009155273,-0.5629234313964844,-0.2940337061882019
1746401152808086500,7.14608642578125,0.3675527572631836,-0.6534501314163208,-0.28541678190231323
1746401152818086400,7.15608642578125,0.049767494201660156,-0.7067992687225342,-0.28177493810653687
1746401152828086500,7.16608642578125,-0.23587512969970703,-0.7322239875793457,-0.27956312894821167
1746401152838086400,7.17608642578125,-0.4814014434814453,-0.7490713596343994,-0.2898668646812439
1746401152848085500,7.18608544921875,-0.6836166381835938,-0.7509129047393799,-0.3196756839752197
1746401152858085600,7.196085693359375,-0.8583621978759766,-0.7359439134597778,-0.3617173433303833
1746401152868085500,7.20608544921875,-1.0027570724487305,-0.714638352394104,-0.41150951385498047
1746401152878085600,7.216085693359375,-1.1036300659179688,-0.6941568851470947,-0.44299793243408203
1746401152888085500,7.22608544921875,-1.170344352722168,-0.6855175495147705,-0.43664443492889404
1746401152898085600,7.236085693359375,-1.1957149505615234,-0.684044361114502,-0.40626823902130127
1746401152908086500,7.24608642578125,-1.1700048446655273,-0.687635064125061,-0.3600206971168518
1746401152918086400,7.25608642578125,-1.0858993530273438,-0.6968070268630981,-0.29206687211990356
1746401152928086300,7.266086181640625,-0.9720783233642578,-0.7074772119522095,-0.22581452131271362
1746401152938086400,7.27608642578125,-0.8426361083984375,-0.7212878465652466,-0.16711866855621338
1746401152948087300,7.28608740234375,-0.736048698425293,-0.7255162000656128,-0.12324422597885132
1746401152958087200,7.296087158203125,-0.6580419540405273,-0.7244457006454468,-0.09488651156425476
1746401152968087300,7.30608740234375,-0.6248903274536133,-0.7244874238967896,-0.09493836760520935
1746401152978087200,7.316087158203125,-0.6292581558227539,-0.7148057222366333,-0.12473884224891663
1746401152988087300,7.32608740234375,-0.6640596389770508,-0.6812704801559448,-0.1842559576034546
1746401152998087200,7.336087158203125,-0.7106733322143555,-0.6128518581390381,-0.26240742206573486
1746401153008087300,7.34608740234375,-0.7577619552612305,-0.5220668315887451,-0.3356831669807434
1746401153018087200,7.356087158203125,-0.8010883331298828,-0.4244351387023926,-0.3776174783706665
1746401153028087300,7.36608740234375,-0.8248605728149414,-0.32970595359802246,-0.3955720067024231
1746401153038087000,7.3760869140625,-0.8230648040771484,-0.24368548393249512,-0.39492982625961304
1746401153048086300,7.386086181640625,-0.8167028427124023,-0.1718735694885254,-0.37833112478256226
1746401153058086400,7.39608642578125,-0.7980804443359375,-0.10993194580078125,-0.351884126663208
1746401153068086300,7.406086181640625,-0.7786188125610352,-0.0509185791015625,-0.3248358368873596
1746401153078086400,7.41608642578125,-0.7676706314086914,0.0013935565948486328,-0.30202585458755493
1746401153088086300,7.426086181640625,-0.7674884796142578,0.03913760185241699,-0.28267866373062134
1746401153098085600,7.436085693359375,-0.7732458114624023,0.06970834732055664,-0.26748955249786377
1746401153108086000,7.4460859375,-0.7826833724975586,0.09828710556030273,-0.25199949741363525
1746401153118086000,7.4560859375,-0.7943449020385742,0.12546443939208984,-0.24355626106262207
1746401153128086000,7.4660859375,-0.7989034652709961,0.1457200050354004,-0.23542380332946777
1746401153138086000,7.4760859375,-0.7989788055419922,0.15804386138916016,-0.23811697959899902
1746401153148086800,7.486086669921875,-0.7851524353027344,0.1754140853881836,-0.24319547414779663
1746401153158087000,7.4960869140625,-0.7501945495605469,0.20026803016662598,-0.25707948207855225
1746401153168086800,7.506086669921875,-0.696375846862793,0.22977089881896973,-0.2675561308860779
1746401153178087000,7.5160869140625,-0.6138696670532227,0.25805234909057617,-0.27729547023773193
1746401153188086800,7.526086669921875,-0.5168190002441406,0.29333066940307617,-0.2829926013946533
1746401153198087000,7.5360869140625,-0.4122171401977539,0.338712215423584,-0.28990745544433594
1746401153208087000,7.546087158203125,-0.3047304153442383,0.3788907527923584,-0.2897201180458069
1746401153218087000,7.5560869140625,-0.19396591186523438,0.4171929359436035,-0.2819094657897949
1746401153228087000,7.566087158203125,-0.07749271392822266,0.4510929584503174,-0.28079932928085327
1746401153238087000,7.5760869140625,0.04226207733154297,0.49266719818115234,-0.2842435836791992
1746401153248086000,7.5860859375,0.1772012710571289,0.5277860164642334,-0.2734569311141968
1746401153258086100,7.596086181640625,0.3413057327270508,0.5603666305541992,-0.2512238621711731
1746401153268086000,7.6060859375,0.5125913619995117,0.5842912197113037,-0.2177550196647644
1746401153278086100,7.616086181640625,0.6907691955566406,0.5845832824707031,-0.16886895895004272
1746401153288086000,7.6260859375,0.8589143753051758,0.5696518421173096,-0.10998290777206421
1746401153298086100,7.636086181640625,0.8615360260009766,0.5543057918548584,-0.12853509187698364
1746401153308086300,7.646086181640625,1.1420068740844727,0.5019116401672363,0.03343093395233154
1746401153318086100,7.656086181640625,1.1453304290771484,0.48830199241638184,0.030583858489990234
1746401153328086300,7.666086181640625,1.1978473663330078,0.5097103118896484,0.11512142419815063
1746401153348087300,7.68608740234375,1.2700414657592773,0.5930922031402588,0.15620046854019165
1746401153358087400,7.69608740234375,1.3320541381835938,0.6158447265625,0.216577410697937
1746401153368087300,7.70608740234375,1.4511661529541016,0.6160733699798584,0.2952948808670044
1746401153378087400,7.71608740234375,1.6713685989379883,0.5918698310852051,0.37571966648101807
1746401153388087300,7.72608740234375,1.9674606323242188,0.5425827503204346,0.43877583742141724
1746401153398087400,7.73608740234375,2.2837982177734375,0.44380831718444824,0.48976415395736694
1746401153408087300,7.74608740234375,2.5783119201660156,0.29588985443115234,0.5046340227127075
1746401153418087400,7.75608740234375,2.810667037963867,0.07909870147705078,0.4794676899909973
1746401153428087300,7.76608740234375,2.9153308868408203,-0.176835298538208,0.44341009855270386
1746401153438087400,7.77608740234375,2.864375114440918,-0.43996310234069824,0.41142377257347107
1746401153448086500,7.78608642578125,2.6863012313842773,-0.6847145557403564,0.38596680760383606
1746401153458086400,7.79608642578125,2.408371925354004,-0.8939759731292725,0.35704129934310913
1746401153468086500,7.80608642578125,2.0994768142700195,-1.0672394037246704,0.32784271240234375
1746401153478086400,7.81608642578125,1.7674779891967773,-1.188944697380066,0.3018885850906372
1746401153488086500,7.82608642578125,1.4240655899047852,-1.251283049583435,0.28944092988967896
1746401153498086400,7.83608642578125,1.0761260986328125,-1.2714861631393433,0.2875555157661438
1746401153508086300,7.846086181640625,0.7661371231079102,-1.2846251726150513,0.3058399558067322
1746401153518086400,7.85608642578125,0.4964179992675781,-1.3019449710845947,0.35978245735168457
1746401153528086500,7.86608642578125,0.26426029205322266,-1.3209083080291748,0.4384840726852417
1746401153538086400,7.87608642578125,0.07255363464355469,-1.3426790237426758,0.5391726493835449
1746401153548087300,7.88608740234375,-0.07593059539794922,-1.364928960800171,0.6503994464874268
1746401153558087200,7.896087158203125,-0.2046356201171875,-1.3924472332000732,0.7714794874191284
1746401153568087300,7.90608740234375,-0.3153953552246094,-1.420708179473877,0.8781788349151611
1746401153578087200,7.916087158203125,-0.4029521942138672,-1.4546730518341064,0.9631589651107788
1746401153588087300,7.92608740234375,-0.45981502532958984,-1.4742918014526367,1.0150498151779175
1746401153598087200,7.936087158203125,-0.48586463928222656,-1.487844705581665,1.0522271394729614
1746401153608086500,7.94608642578125,-0.5045251846313477,-1.5021536350250244,1.0800566673278809
1746401153618086400,7.95608642578125,-0.5302066802978516,-1.5223684310913086,1.1022272109985352
1746401153628086500,7.96608642578125,-0.5650339126586914,-1.5422972440719604,1.1050633192062378
1746401153638086400,7.97608642578125,-0.6088008880615234,-1.5411362648010254,1.0986738204956055
1746401153648085500,7.98608544921875,-0.6066904067993164,-1.5494804382324219,1.093867301940918
1746401153658085600,7.996085693359375,-0.7430667877197266,-1.4526035785675049,1.0513815879821777
1746401153668085500,8.00608544921875,-0.8118267059326172,-1.387447476387024,1.0225536823272705
1746401153678085600,8.016085693359376,-0.8895854949951172,-1.31644606590271,0.9845044612884521
1746401153688085500,8.02608544921875,-0.964320182800293,-1.247178554534912,0.9479573965072632
1746401153698085600,8.036085693359375,-1.0311622619628906,-1.1751936674118042,0.9100932478904724
1746401153708085500,8.04608544921875,-1.1021003723144531,-1.110177993774414,0.8890262842178345
1746401153718085600,8.056085693359375,-1.1750097274780273,-1.0516974925994873,0.8753694295883179
1746401153728085500,8.06608544921875,-1.2454137802124023,-0.9964734315872192,0.8660038709640503
1746401153738085600,8.076085693359374,-1.3063278198242188,-0.9270081520080566,0.8517699837684631
1746401153748086300,8.086086181640624,-1.3010883331298828,-0.943706750869751,0.8539820909500122
1746401153758086400,8.09608642578125,-1.3733305931091309,-0.7589468955993652,0.8026925325393677
1746401153768086500,8.10608642578125,-1.3700928688049316,-0.7692620754241943,0.8035944700241089
1746401153778086400,8.11608642578125,-1.3634181022644043,-0.5884521007537842,0.7277421951293945
1746401153788086500,8.12608642578125,-1.3224096298217773,-0.5149381160736084,0.6859146952629089
1746401153798086400,8.13608642578125,-1.2398595809936523,-0.4480605125427246,0.6334291100502014
1746401153808086500,8.14608642578125,-1.1325645446777344,-0.38301539421081543,0.5792998671531677
1746401153818086400,8.15608642578125,-1.1368169784545898,-0.36837196350097656,0.5826431512832642
1746401153828086300,8.166086181640624,-0.8356533050537109,-0.29035425186157227,0.4710787534713745
1746401153838086400,8.17608642578125,-0.6400222778320312,-0.24773287773132324,0.41120216250419617
1746401153848085500,8.18608544921875,-0.41816234588623047,-0.20277690887451172,0.35858577489852905
1746401153858085400,8.19608544921875,-0.17737388610839844,-0.15551018714904785,0.3018924593925476
1746401153868085500,8.20608544921875,0.053521156311035156,-0.10834813117980957,0.24687722325325012
1746401153878085400,8.21608544921875,0.26757144927978516,-0.0715632438659668,0.20325040817260742
1746401153888085500,8.22608544921875,0.4436197280883789,-0.04339313507080078,0.16661587357521057
1746401153898085400,8.23608544921875,0.5845870971679688,-0.017786502838134766,0.132793128490448
1746401153908086300,8.246086181640624,0.6960229873657227,0.01803898811340332,0.10442513227462769
1746401153918086400,8.25608642578125,0.7771244049072266,0.07358312606811523,0.06790131330490112
1746401153928086300,8.266086181640626,0.8393688201904297,0.1476912498474121,0.026043951511383057
1746401153938086400,8.27608642578125,0.8919944763183594,0.22447466850280762,-0.015303730964660645
1746401153948087300,8.28608740234375,0.9372730255126953,0.29688215255737305,-0.05520695447921753
1746401153958087200,8.296087158203125,0.9632596969604492,0.3741621971130371,-0.11401236057281494
1746401153968087300,8.30608740234375,0.9629402160644531,0.47263598442077637,-0.19098198413848877
1746401153978087200,8.316087158203125,0.960597038269043,0.4792020320892334,-0.19934159517288208
1746401153988087300,8.32608740234375,1.0425739288330078,0.5739855766296387,-0.2820034623146057
1746401153998087200,8.336087158203124,1.1043720245361328,0.5550670623779297,-0.278764009475708
1746401154008087300,8.34608740234375,1.1634483337402344,0.5374660491943359,-0.2555524706840515
1746401154018087200,8.356087158203126,1.249781608581543,0.5326144695281982,-0.2180335521697998
1746401154028087300,8.36608740234375,1.3458757400512695,0.5176694393157959,-0.17754817008972168
1746401154038087200,8.376087158203125,1.4589433670043945,0.4509575366973877,-0.11786732077598572
1746401154048086300,8.386086181640625,1.5710067749023438,0.33770298957824707,-0.05513560771942139
1746401154058086400,8.39608642578125,1.6596784591674805,0.18886661529541016,-0.0014556050300598145
1746401154068086300,8.406086181640624,1.7079038619995117,0.03817296028137207,0.02802950143814087
1746401154078043600,8.416043701171875,1.7013616561889648,-0.09587454795837402,0.01936209201812744
1746401154088043500,8.42604345703125,1.6414270401000977,-0.21422803401947021,-0.00205308198928833
1746401154098043600,8.436043701171876,1.5028572082519531,-0.3243831396102905,-0.01790642738342285
1746401154108043500,8.44604345703125,1.3152780532836914,-0.41914093494415283,-0.03111332654953003
1746401154118043600,8.456043701171875,1.1029224395751953,-0.48872876167297363,-0.03640252351760864
1746401154128043500,8.46604345703125,0.8750057220458984,-0.5332567691802979,-0.02867943048477173
1746401154138043600,8.476043701171875,0.6304121017456055,-0.5511833429336548,-0.01755666732788086
1746401154148044300,8.486044189453125,0.3949460983276367,-0.5664416551589966,-0.0048980712890625
1746401154158044400,8.49604443359375,0.1778860092163086,-0.5872673988342285,0.007486224174499512
1746401154168044300,8.506044189453124,-0.03192329406738281,-0.6057628393173218,0.026335716247558594
1746401154178044400,8.51604443359375,-0.24059009552001953,-0.6110869646072388,0.06103014945983887
1746401154188044300,8.526044189453126,-0.4273653030395508,-0.6085665225982666,0.10104572772979736
1746401154198044400,8.53604443359375,-0.5831108093261719,-0.5961769819259644,0.1644277572631836
1746401154208044000,8.5460439453125,-0.7080965042114258,-0.5891584157943726,0.2264096736907959
1746401154218043100,8.556043212890625,-0.8074941635131836,-0.5809800624847412,0.2860459089279175
1746401154228043300,8.566043212890625,-0.8058309555053711,-0.6197495460510254,0.22040987014770508
1746401154238043100,8.576043212890625,-0.8924999237060547,-0.5674557685852051,0.34840136766433716
1746401154248042200,8.586042236328124,-0.8731193542480469,-0.5728025436401367,0.35200995206832886
1746401154258042400,8.59604248046875,-0.8404531478881836,-0.596996545791626,0.32559436559677124
1746401154268042200,8.606042236328125,-0.7985334396362305,-0.6208558082580566,0.2847678065299988
1746401154278042400,8.61604248046875,-0.7514066696166992,-0.6348583698272705,0.23970484733581543
1746401154288042200,8.626042236328125,-0.7154884338378906,-0.6334147453308105,0.20016354322433472
1746401154298042400,8.63604248046875,-0.6882791519165039,-0.6100771427154541,0.17700237035751343
1746401154308042200,8.646042236328125,-0.6594352722167969,-0.5702548027038574,0.18252122402191162
1746401154318042400,8.65604248046875,-0.6340227127075195,-0.5073419809341431,0.19958555698394775
1746401154328042500,8.66604248046875,-0.6122102737426758,-0.4349938631057739,0.23365002870559692
1746401154338042400,8.67604248046875,-0.5727567672729492,-0.08915019035339355,0.2781907916069031
1746401154348043300,8.686043212890626,-0.6190662384033203,0.00962376594543457,0.4404924511909485
1746401154358043400,8.69604345703125,-0.7922677993774414,0.11240243911743164,0.6024819016456604
1746401154368043300,8.706043212890625,-0.9226980209350586,0.15498614311218262,0.7129474878311157
1746401154378043600,8.716043701171875,-1.084610939025879,0.20096755027770996,0.7866231203079224
1746401154388043500,8.72604345703125,-1.206411361694336,0.24280261993408203,0.8088736534118652
1746401154398043600,8.736043701171875,-1.2446928024291992,0.276294469833374,0.7808605432510376
1746401154408043800,8.746043701171875,-1.2522268295288086,0.3058009147644043,0.6674375534057617
1746401154418044000,8.7560439453125,-1.217228889465332,0.3277585506439209,0.6036937832832336
1746401154428043800,8.766043701171874,-1.1614799499511719,0.34773683547973633,0.5533758401870728
1746401154438044000,8.7760439453125,-1.032562255859375,0.41445183753967285,0.4322330951690674
1746401154448043000,8.78604296875,-0.8231563568115234,0.4817080497741699,0.3355306386947632
1746401154458043000,8.79604296875,-0.5712509155273438,0.5238668918609619,0.34132659435272217
1746401154468043000,8.80604296875,-0.4007577896118164,0.5755515098571777,0.37768805027008057
1746401154478043000,8.81604296875,-0.3755474090576172,0.6541831493377686,0.41667455434799194
1746401154488043000,8.82604296875,-0.32251644134521484,0.7592294216156006,0.4442945122718811
1746401154498043000,8.83604296875,-0.3179159164428711,0.9326374530792236,0.449363648891449
1746401154508043300,8.846043212890624,-0.31423473358154297,0.9211599826812744,0.45634132623672485
1746401154518044200,8.856044189453126,-0.3552894592285156,1.0142812728881836,0.4636231064796448
1746401154528044300,8.866044189453126,-0.29811763763427734,1.1522138118743896,0.5062452554702759
1746401154538044200,8.876044189453125,-0.1360340118408203,1.1504509449005127,0.5294061899185181
1746401154548045000,8.886045166015625,0.04622077941894531,1.12721586227417,0.5535666346549988
1746401154558045000,8.896044921875,0.38329601287841797,1.101356029510498,0.5824547410011292
1746401154568045000,8.906045166015625,0.686187744140625,1.072873592376709,0.6291237473487854
1746401154578045000,8.916044921875,1.0886955261230469,1.0646922588348389,0.6702201962471008
1746401154588045000,8.926045166015625,1.4060535430908203,0.9709079265594482,0.7373612523078918
1746401154598045000,8.936044921875,1.6865568161010742,0.7759873867034912,0.8411055207252502
1746401154608045000,8.946045166015624,1.7850341796875,0.6001043319702148,0.898514986038208
1746401154618045200,8.956045166015626,1.7840957641601562,0.6012272834777832,0.8930845260620117
1746401154628045000,8.966045166015626,1.6584358215332031,0.42369627952575684,0.7781535387039185
1746401154648044300,8.986044189453125,0.9844827651977539,0.643704891204834,0.3377034068107605
1746401154658044200,8.996044189453125,1.1339845657348633,0.803912878036499,0.2595630884170532
1746401154668044300,9.006044189453124,1.3038253784179688,0.937443733215332,0.3182499408721924
1746401154678044200,9.016044189453124,1.5253276824951172,0.8773784637451172,0.520142674446106
1746401154688044300,9.026044189453126,1.5433053970336914,0.8589344024658203,0.5968761444091797
1746401154698044200,9.036044189453126,2.084904670715332,0.6996128559112549,0.7944676876068115
1746401154708043800,9.046043701171875,3.792146682739258,0.12141156196594238,1.1287131309509277
1746401154718044000,9.0560439453125,4.373744010925293,-0.33538055419921875,1.4012593030929565
1746401154728043800,9.066043701171875,4.871501922607422,-0.8393186330795288,1.5014599561691284
1746401154738044000,9.0760439453125,4.921907424926758,-1.535338282585144,1.677395224571228
1746401154748044800,9.086044921875,4.413214683532715,-1.9986181259155273,1.8170456886291504
1746401154758044700,9.096044677734374,3.3919191360473633,-2.307762622833252,1.870957612991333
1746401154768044800,9.106044921875,2.343862533569336,-2.4414567947387695,1.7839120626449585
1746401154778044700,9.116044677734376,1.4796619415283203,-2.280092716217041,1.4394590854644775
1746401154788044800,9.126044921875,1.0203189849853516,-2.022524833679199,1.0797702074050903
1746401154798044700,9.136044677734375,0.34926700592041016,-1.6917502880096436,0.8674640655517578
1746401154808044800,9.146044921875,-0.2964286804199219,-1.4179130792617798,0.860773503780365
1746401154818044700,9.156044677734375,-0.814814567565918,-1.2780488729476929,0.872814416885376
1746401154828044800,9.166044921875,-1.018960952758789,-1.2522597312927246,0.9430193901062012
1746401154838044700,9.176044677734374,-1.1036558151245117,-1.2680878639221191,1.1032819747924805
1746401154848044000,9.1860439453125,-1.1353979110717773,-1.278584361076355,1.2398051023483276
1746401154858044000,9.1960439453125,-1.1002578735351562,-1.375389575958252,1.3746498823165894
1746401154868044000,9.2060439453125,-1.0122966766357422,-1.5353294610977173,1.4457823038101196
1746401154878044000,9.2160439453125,-0.8887548446655273,-1.7059705257415771,1.454214096069336
1746401154888044000,9.2260439453125,-0.7787141799926758,-1.8615278005599976,1.3749504089355469
1746401154898044000,9.2360439453125,-0.631134033203125,-1.958716630935669,1.2639002799987793
1746401154908044000,9.2460439453125,-0.4884786605834961,-2.0263824462890625,1.1285598278045654
1746401154918044000,9.2560439453125,-0.4893074035644531,-2.0453953742980957,1.0611813068389893
1746401154928043800,9.266043701171874,-0.3939695358276367,-2.140545606613159,0.9426155090332031
1746401154938044000,9.2760439453125,-0.37932586669921875,-2.142540454864502,0.8284829258918762
1746401154948044500,9.28604443359375,-0.37772274017333984,-2.1546995639801025,0.8009458184242249
1746401154958044700,9.296044677734375,-0.705413818359375,-1.9751070737838745,0.7312358617782593
1746401154968044500,9.30604443359375,-0.8717975616455078,-1.8380963802337646,0.6738030910491943
1746401154978044700,9.316044677734375,-1.0643110275268555,-1.6752793788909912,0.6140284538269043
1746401154988044500,9.32604443359375,-1.2695207595825195,-1.539807677268982,0.5268319845199585
1746401154998044700,9.336044677734375,-1.4447641372680664,-1.4045603275299072,0.43643808364868164
1746401155008044500,9.34604443359375,-1.444087028503418,-1.4011399745941162,0.45681601762771606
1746401155018044700,9.356044677734374,-1.5428171157836914,-1.206595778465271,0.23244744539260864
1746401155028044500,9.36604443359375,-1.548048496246338,-1.1253104209899902,0.19533675909042358
1746401155038044700,9.376044677734376,-1.5550727844238281,-1.0443291664123535,0.18546724319458008
1746401155048043800,9.386043701171875,-1.561476707458496,-1.021498203277588,0.19688016176223755
1746401155058043600,9.396043701171875,-1.409092903137207,-0.832179069519043,0.15054577589035034
1746401155068043800,9.406043701171875,-1.2436752319335938,-0.6998045444488525,0.09453898668289185
1746401155078043600,9.416043701171875,-1.0071592330932617,-0.5972225666046143,0.039216816425323486
1746401155088043800,9.426043701171874,-0.8380317687988281,-0.4825122356414795,-0.015577375888824463
1746401155098043600,9.436043701171876,-0.6257352828979492,-0.37868666648864746,-0.08701872825622559
1746401155108043800,9.446043701171876,-0.4414196014404297,-0.2429046630859375,-0.12635153532028198
1746401155118043600,9.456043701171875,-0.2494974136352539,-0.09042620658874512,-0.16088473796844482
1746401155128043800,9.466043701171875,-0.05999469757080078,-0.010946989059448242,-0.136377215385437
1746401155138043600,9.476043701171875,0.13654518127441406,0.0443267822265625,-0.06356078386306763
1746401155148044500,9.48604443359375,0.29468250274658203,0.07352662086486816,-0.024197161197662354
1746401155158044700,9.496044677734375,0.4074726104736328,0.10043001174926758,-0.01620703935623169
1746401155168044500,9.50604443359375,0.39865970611572266,0.12198781967163086,-0.0493205189704895
1746401155178044700,9.516044677734374,0.7880058288574219,0.24077272415161133,-0.08092468976974487
1746401155188044500,9.52604443359375,0.8673229217529297,0.24251055717468262,-0.10324239730834961
1746401155198044700,9.536044677734376,0.8686084747314453,0.2564520835876465,-0.11673414707183838
1746401155208044500,9.54604443359375,0.8640756607055664,0.26939892768859863,-0.12977629899978638
1746401155218044700,9.556044677734375,0.8371486663818359,0.30705690383911133,-0.23987233638763428
1746401155228044500,9.56604443359375,0.8380270004272461,0.39825868606567383,-0.3109216094017029
1746401155238044700,9.576044677734375,0.8233184814453125,0.4957714080810547,-0.401978075504303
1746401155248043800,9.586043701171874,0.8403091430664062,0.5197141170501709,-0.42947858572006226
1746401155258043600,9.596043701171874,0.838465690612793,0.5256097316741943,-0.4505375623703003
1746401155268043800,9.606043701171876,0.9229393005371094,0.520721435546875,-0.42936867475509644
1746401155288043800,9.626043701171875,1.125722885131836,0.49578285217285156,-0.4297698736190796
1746401155298043600,9.636043701171875,1.1366758346557617,0.45258545875549316,-0.42630666494369507
1746401155308043800,9.646043701171875,1.0361051559448242,0.4532430171966553,-0.44701868295669556
1746401155318043600,9.656043701171875,0.8245115280151367,0.4991466999053955,-0.41938984394073486
1746401155328043800,9.666043701171875,0.822932243347168,0.46604275703430176,-0.30783534049987793
1746401155338043600,9.676043701171874,0.8726491928100586,0.33286190032958984,0.0021330714225769043
1746401155348044500,9.68604443359375,1.0209150314331055,0.24530506134033203,0.26801660656929016
1746401155358044700,9.696044677734376,1.2972021102905273,0.2985661029815674,0.3853282928466797
1746401155368044800,9.706044921875,1.6233091354370117,0.41829919815063477,0.3264126479625702
1746401155378044700,9.716044677734375,1.9741802215576172,0.3234386444091797,0.2784939408302307
1746401155388044800,9.726044921875,2.1775007247924805,0.05340123176574707,0.2549428939819336
1746401155398045400,9.73604541015625,2.2489395141601562,-0.3412508964538574,0.23941250145435333
1746401155408045600,9.746045654296875,2.363072395324707,-0.6092785596847534,0.10646268725395203
1746401155418045400,9.75604541015625,2.242063522338867,-0.8886222839355469,-0.0014827251434326172
1746401155428045300,9.76604541015625,1.9034337997436523,-1.0454182624816895,-0.1147536039352417
1746401155448044500,9.78604443359375,1.3809137344360352,-1.011495590209961,-0.20191538333892822
1746401155458044700,9.796044677734375,0.36668968200683594,-1.001963496208191,-0.30735647678375244
1746401155468044500,9.80604443359375,-0.18483543395996094,-0.9082026481628418,-0.2481154203414917
1746401155478044200,9.816044189453125,-0.5589151382446289,-0.8187731504440308,-0.1598747968673706
1746401155488044000,9.8260439453125,-0.8840875625610352,-0.6776959896087646,-0.022605836391448975
1746401155498044200,9.836044189453125,-1.2845420837402344,-0.5063512325286865,0.1760852336883545
1746401155508044500,9.84604443359375,-1.4612712860107422,-0.3703552484512329,0.40715914964675903
1746401155518044400,9.85604443359375,-1.5716557502746582,-0.29750967025756836,0.7215781807899475
1746401155528044500,9.86604443359375,-1.6094279289245605,-0.28019165992736816,0.9623151421546936
1746401155538044400,9.87604443359375,-1.5229320526123047,-0.2314777374267578,1.2167911529541016
1746401155548045300,9.88604541015625,-1.4035634994506836,-0.218095064163208,1.4701590538024902
1746401155558045400,9.89604541015625,-1.3929710388183594,-0.29216861724853516,1.3709076642990112
1746401155568045300,9.90604541015625,-1.1179475784301758,-0.5015244483947754,1.794626235961914
1746401155578045400,9.91604541015625,-0.8921775817871094,-0.6627297401428223,1.8101595640182495
1746401155588045300,9.92604541015625,-0.8952884674072266,-0.677945613861084,1.6919457912445068
1746401155598045400,9.93604541015625,-0.7054376602172852,-0.9063276052474976,1.2626787424087524
1746401155608045300,9.94604541015625,-0.6140022277832031,-1.0705313682556152,0.9688646793365479
1746401155618045400,9.95604541015625,-0.5244894027709961,-1.202357530593872,0.6751231551170349
1746401155628045300,9.96604541015625,-0.5175905227661133,-1.2473721504211426,0.4378247857093811
1746401155638045400,9.97604541015625,-0.5922641754150391,-1.1008331775665283,0.19633401930332184
1746401155648044500,9.98604443359375,-0.5485877990722656,-0.8393733501434326,0.016107887029647827
1746401155658044700,9.996044677734375,-0.531336784362793,-0.516167402267456,-0.15298926830291748
1746401155668044500,10.00604443359375,-0.5296945571899414,-0.24594902992248535,-0.1538907289505005
1746401155678044400,10.01604443359375,-0.5135116577148438,-0.029791593551635742,-0.07607561349868774
1746401155688044500,10.02604443359375,-0.5099058151245117,0.11124801635742188,0.07297086715698242
1746401155698044000,10.0360439453125,-0.4409170150756836,0.214341402053833,0.23629683256149292
1746401155708043800,10.046043701171875,-0.4248313903808594,0.3000977039337158,0.3567352294921875
1746401155718043600,10.056043701171875,-0.4312400817871094,0.3348066806793213,0.46626824140548706
1746401155728043800,10.066043701171875,-0.4722127914428711,0.31066060066223145,0.6207760572433472
1746401155738043600,10.076043701171875,-0.5738916397094727,0.2523515224456787,0.682908833026886
1746401155748044500,10.08604443359375,-0.5777902603149414,0.25065088272094727,0.645825207233429
1746401155758044700,10.096044677734374,-0.6437692642211914,0.22577357292175293,0.6509010791778564
1746401155768044500,10.10604443359375,-0.6379766464233398,0.24620556831359863,0.6827492117881775
1746401155778045000,10.116044921875,-0.6134357452392578,0.23128890991210938,0.6521902084350586
1746401155788045000,10.126045166015626,-0.4552288055419922,0.24008655548095703,0.6186388731002808
1746401155798045000,10.136044921875,-0.28064918518066406,0.280468225479126,0.5197359919548035
1746401155808044800,10.146044921875,-0.2857990264892578,0.30600690841674805,0.5276908278465271
1746401155818044700,10.156044677734375,0.09959220886230469,0.3237795829772949,0.4154205918312073
1746401155828044800,10.166044921875,0.2730703353881836,0.37830209732055664,0.3603004813194275
1746401155838044700,10.176044677734374,0.4381856918334961,0.3793013095855713,0.31503820419311523
1746401155848043800,10.186043701171876,0.5567092895507812,0.40611982345581055,0.2835085988044739
1746401155858044000,10.1960439453125,0.6646280288696289,0.47333264350891113,0.26265108585357666
1746401155868043800,10.206043701171875,0.7188758850097656,0.48415112495422363,0.2729395627975464
1746401155878044000,10.2160439453125,0.7984619140625,0.476010799407959,0.30367112159729004
1746401155888043800,10.226043701171875,0.8650550842285156,0.47478723526000977,0.3683837056159973
1746401155898044000,10.2360439453125,0.9829483032226562,0.4860694408416748,0.4535553455352783
1746401155908043800,10.246043701171875,1.044520378112793,0.4538857936859131,0.5296206474304199
1746401155918043600,10.256043701171874,1.1187849044799805,0.4125368595123291,0.683741569519043
1746401155928043800,10.266043701171874,1.1771812438964844,0.35112428665161133,0.7914705872535706
1746401155948044500,10.28604443359375,1.1946592330932617,0.22008299827575684,0.9404201507568359
1746401155958044700,10.296044677734375,1.1396150588989258,0.15299439430236816,1.126994013786316
1746401155968044500,10.30604443359375,0.9018936157226562,0.13238263130187988,1.2979083061218262
1746401155978044700,10.316044677734375,0.9172229766845703,0.07334542274475098,1.295802354812622
1746401155988044500,10.32604443359375,0.558955192565918,0.36771464347839355,1.113576054573059
1746401155998044700,10.336044677734375,0.6902742385864258,0.5189509391784668,1.031296968460083
1746401156008044500,10.34604443359375,0.7087955474853516,0.46990299224853516,1.0712555646896362
1746401156018044700,10.356044677734374,1.105818748474121,0.5041718482971191,1.05621337890625
1746401156028044500,10.36604443359375,1.5658493041992188,0.4652981758117676,1.0152114629745483
1746401156038044700,10.376044677734376,2.3002166748046875,0.31844592094421387,1.01826810836792
1746401156048043800,10.386043701171875,2.868973731994629,0.0448455810546875,1.073320746421814
1746401156058043600,10.396043701171875,3.2498226165771484,-0.38187646865844727,1.1314228773117065
1746401156068043800,10.406043701171875,3.5664634704589844,-0.7647755146026611,1.111415982246399
1746401156078043600,10.416043701171875,3.5941638946533203,-1.235129952430725,1.113641619682312
1746401156088043800,10.426043701171874,3.247635841369629,-1.5355687141418457,1.1259877681732178
1746401156098043600,10.436043701171876,2.60003662109375,-1.751873254776001,1.1028313636779785
1746401156108043800,10.446043701171876,1.8745794296264648,-1.8718438148498535,1.0519732236862183
1746401156118043600,10.456043701171875,0.9698314666748047,-1.819906234741211,0.942225456237793
1746401156128043800,10.466043701171875,0.21376609802246094,-1.731338381767273,0.814613938331604
1746401156138043600,10.476043701171875,-0.5768985748291016,-1.6399662494659424,0.8398182392120361
1746401156148044500,10.48604443359375,-1.2255945205688477,-1.5567253828048706,0.9776400327682495
1746401156158044700,10.496044677734375,-1.7724895477294922,-1.4540592432022095,1.0476677417755127
1746401156168044500,10.50604443359375,-2.012004852294922,-1.3655662536621094,1.0538749694824219
1746401156178044700,10.516044677734374,-2.0788660049438477,-1.219989538192749,1.0650383234024048
1746401156188044500,10.52604443359375,-2.019423484802246,-1.177606225013733,1.1498205661773682
1746401156198044700,10.536044677734376,-1.8165993690490723,-1.24213707447052,1.270463228225708
1746401156208044500,10.54604443359375,-1.8025307655334473,-1.295150637626648,1.2473716735839844
1746401156218044700,10.556044677734375,-1.0012779235839844,-1.5376285314559937,1.5471528768539429
1746401156228044500,10.56604443359375,-0.5301589965820312,-1.7452220916748047,1.6680577993392944
1746401156238044700,10.576044677734375,0.025732994079589844,-2.0107312202453613,1.7911521196365356
1746401156248043800,10.586043701171874,0.4858884811401367,-2.303703784942627,1.8358556032180786
1746401156258043600,10.596043701171874,0.8999824523925781,-2.5345568656921387,1.781476616859436
1746401156268043800,10.606043701171876,1.1282844543457031,-2.63315486907959,1.643255591392517
1746401156278043600,10.616043701171876,1.1799945831298828,-2.7375757694244385,1.5046398639678955
1746401156288043800,10.626043701171875,1.0763168334960938,-2.7767245769500732,1.3572816848754883
1746401156298043600,10.636043701171875,0.8280973434448242,-2.7117414474487305,1.1934185028076172
1746401156308043800,10.646043701171875,0.5670738220214844,-2.502220869064331,1.0369579792022705
1746401156318043600,10.656043701171875,0.32364559173583984,-2.2245700359344482,0.9397562742233276
1746401156328043800,10.666043701171875,0.11065101623535156,-1.947659969329834,0.8791640996932983
1746401156338043600,10.676043701171874,-0.1762380599975586,-1.7341253757476807,0.8982071280479431
1746401156348044500,10.68604443359375,-0.3029041290283203,-1.6441619396209717,0.9648743271827698
1746401156358044700,10.696044677734376,-0.3916311264038086,-1.5107342004776,1.0566043853759766
1746401156368044500,10.70604443359375,-0.47136878967285156,-1.3917629718780518,1.1393651962280273
1746401156378044700,10.716044677734375,-0.5352344512939453,-1.3184384107589722,1.1439510583877563
1746401156388044500,10.72604443359375,-0.5078611373901367,-1.2816537618637085,1.1459542512893677
1746401156398044700,10.736044677734375,-0.4701108932495117,-1.3121962547302246,1.1496846675872803
1746401156408044500,10.74604443359375,-0.4602479934692383,-1.3447113037109375,1.1190868616104126
1746401156418044700,10.756044677734375,-0.38719749450683594,-1.3901513814926147,1.0911853313446045
1746401156428044500,10.76604443359375,-0.2863426208496094,-1.4056938886642456,1.026939034461975
1746401156438044700,10.776044677734374,-0.15982627868652344,-1.3456286191940308,0.9436728358268738
1746401156448043800,10.786043701171875,-0.00504302978515625,-1.301172137260437,0.9143291711807251
1746401156458043600,10.796043701171875,0.18522071838378906,-1.20311439037323,0.8520031571388245
1746401156468043800,10.806043701171875,0.3125782012939453,-1.1610153913497925,0.8320342302322388
1746401156478043600,10.816043701171875,0.46111488342285156,-1.0928767919540405,0.8732298612594604
1746401156488043800,10.826043701171875,0.5160884857177734,-1.068951964378357,0.8359214067459106
1746401156498043600,10.836043701171874,0.552180290222168,-1.0454832315444946,0.7967080473899841
1746401156508043800,10.846043701171874,0.548253059387207,-1.0023518800735474,0.761114776134491
1746401156518043600,10.856043701171876,0.5211620330810547,-0.9400209188461304,0.6215578317642212
1746401156528043800,10.866043701171876,0.5259380340576172,-0.8415433168411255,0.5269975662231445
1746401156538043600,10.876043701171875,0.5147285461425781,-0.7859400510787964,0.403958261013031
1746401156548044500,10.88604443359375,0.5905961990356445,-0.716041088104248,0.35399678349494934
1746401156558044700,10.896044677734375,0.6958780288696289,-0.6909162998199463,0.26232004165649414
1746401156568044500,10.90604443359375,0.7299890518188477,-0.6416513919830322,0.19931888580322266
1746401156578044700,10.916044677734375,0.7217979431152344,-0.6245450973510742,0.13256579637527466
1746401156588044500,10.92604443359375,0.6785993576049805,-0.5758404731750488,0.08067911863327026
1746401156598044700,10.936044677734374,0.6197071075439453,-0.4988046884536743,0.03665304183959961
1746401156608043800,10.946043701171876,0.5089778900146484,-0.4263186454772949,-0.014795660972595215
1746401156618043600,10.956043701171875,0.46830272674560547,-0.34301555156707764,-0.0496479868888855
1746401156628043800,10.966043701171875,0.5355701446533203,-0.28545165061950684,-0.15744000673294067
1746401156648043000,10.98604296875,0.6671819686889648,-0.2746840715408325,-0.2653080224990845
1746401156658043000,10.99604296875,0.894439697265625,-0.4104539155960083,-0.3521273732185364
1746401156668043000,11.00604296875,0.9376287460327148,-0.4542088508605957,-0.39343541860580444
1746401156678043000,11.01604296875,0.9384136199951172,-0.46484947204589844,-0.4541548490524292
1746401156688043000,11.02604296875,0.8732051849365234,-0.46759486198425293,-0.5605329275131226
1746401156698043000,11.03604296875,0.7636117935180664,-0.4168802499771118,-0.6692780256271362
1746401156708042800,11.046042724609375,0.5717859268188477,-0.3500863313674927,-0.7029427289962769
1746401156718043000,11.05604296875,0.366546630859375,-0.2669423818588257,-0.707970142364502
1746401156728042800,11.066042724609375,0.2624244689941406,-0.20835435390472412,-0.6612980365753174
1746401156738043000,11.07604296875,0.3210601806640625,-0.1617358922958374,-0.6043108701705933
1746401156748043800,11.086043701171874,0.5678882598876953,-0.18535947799682617,-0.4593256711959839
1746401156758043600,11.096043701171874,1.0761804580688477,-0.3497023582458496,-0.3136835992336273
1746401156768043800,11.106043701171876,1.6941289901733398,-0.5627768039703369,-0.23524051904678345
1746401156778043600,11.116043701171876,2.2342166900634766,-0.915236234664917,-0.2221396267414093
1746401156788043800,11.126043701171875,2.299673080444336,-1.2072064876556396,-0.2351895272731781
1746401156798043600,11.136043701171875,2.3109893798828125,-1.4887261390686035,-0.5111185312271118
1746401156808043800,11.146043701171875,2.258363723754883,-1.7748265266418457,-0.6168897151947021
1746401156818044000,11.1560439453125,1.7051544189453125,-1.9414600133895874,-0.6047403812408447
1746401156828043800,11.166043701171875,0.9445867538452148,-1.9455524682998657,-0.5925216674804688
1746401156838044000,11.1760439453125,0.22688674926757812,-1.762708306312561,-0.672096848487854
1746401156848043000,11.18604296875,-0.2053508758544922,-1.4980806112289429,-0.7114691734313965
1746401156858043000,11.19604296875,-0.6201915740966797,-1.1949331760406494,-0.6733971834182739
1746401156868043000,11.20604296875,-0.9791364669799805,-0.9853487014770508,-0.579167902469635
1746401156878043000,11.21604296875,-1.4341163635253906,-0.8104530572891235,-0.37622374296188354
1746401156888043000,11.22604296875,-1.598891258239746,-0.7541263699531555,-0.13591551780700684
1746401156898043000,11.23604296875,-1.6636343002319336,-0.673943817615509,0.11693733930587769
1746401156908043800,11.246043701171875,-1.735243320465088,-0.6104927659034729,0.35305678844451904
1746401156918043600,11.256043701171874,-1.7047557830810547,-0.6369826197624207,0.5873247981071472
1746401156928043800,11.266043701171874,-1.6442656517028809,-0.7983126044273376,0.8444867134094238
1746401156938043600,11.276043701171876,-1.5272645950317383,-1.0272722244262695,1.035583734512329
1746401156948044500,11.28604443359375,-1.338364601135254,-1.1739988327026367,1.0779082775115967
1746401156958044700,11.296044677734375,-0.9960289001464844,-1.2878916263580322,1.0573745965957642
1746401156968044500,11.30604443359375,-0.6794462203979492,-1.4147703647613525,1.0815016031265259
1746401156978044700,11.316044677734375,-0.3715782165527344,-1.6349968910217285,1.0743858814239502
1746401156988044500,11.32604443359375,-0.08875751495361328,-1.8028340339660645,1.0393718481063843
1746401156998044700,11.336044677734375,0.18622303009033203,-1.9169743061065674,1.002986192703247
1746401157008044500,11.34604443359375,0.4152412414550781,-1.8870958089828491,0.8763403296470642
1746401157018044700,11.356044677734374,0.6465215682983398,-1.7819771766662598,0.7292740941047668
1746401157028044500,11.36604443359375,0.8760156631469727,-1.6024032831192017,0.6216928362846375
1746401157038044700,11.376044677734376,1.0752191543579102,-1.4631264209747314,0.5668519139289856
1746401157048043800,11.386043701171875,1.1772375106811523,-1.3514103889465332,0.576650083065033
1746401157058043600,11.396043701171875,1.1967334747314453,-1.201446294784546,0.6978095769882202
1746401157068043800,11.406043701171875,1.172079086303711,-1.0661001205444336,0.8729801774024963
1746401157078043600,11.416043701171875,1.059865951538086,-0.9614530801773071,1.1321849822998047
1746401157088043800,11.426043701171874,0.9030227661132812,-0.8768898248672485,1.2701013088226318
1746401157098043600,11.436043701171876,0.6630573272705078,-0.7874540686607361,1.4376046657562256
1746401157108043800,11.446043701171876,0.4574604034423828,-0.7366158962249756,1.5552622079849243
1746401157118043600,11.456043701171875,0.21409988403320312,-0.7049846649169922,1.6778199672698975
1746401157128043800,11.466043701171875,0.023729324340820312,-0.6617772579193115,1.73612642288208
1746401157138043600,11.476043701171875,-0.154449462890625,-0.6111326813697815,1.7598822116851807
1746401157148044500,11.48604443359375,-0.2488727569580078,-0.6021633744239807,1.7880651950836182
1746401157158044700,11.496044677734375,-0.329132080078125,-0.6405235528945923,1.8367230892181396
1746401157168044500,11.50604443359375,-0.41213226318359375,-0.65581214427948,1.858876347541809
1746401157178044700,11.516044677734374,-0.45961952209472656,-0.650442361831665,1.8474974632263184
1746401157188044500,11.52604443359375,-0.4787635803222656,-0.6257748603820801,1.7965350151062012
1746401157198044700,11.536044677734376,-0.4955177307128906,-0.5816641449928284,1.7146421670913696
1746401157208044500,11.54604443359375,-0.4979228973388672,-0.5449506640434265,1.5957013368606567
1746401157218044700,11.556044677734375,-0.4764261245727539,-0.4775797128677368,1.4694880247116089
1746401157228044500,11.56604443359375,-0.4790172576904297,-0.4557168483734131,1.463161587715149
1746401157238044700,11.576044677734375,-0.28542518615722656,-0.41771721839904785,1.279444694519043
1746401157248043800,11.586043701171874,-0.15908145904541016,-0.3755350708961487,1.2071566581726074
1746401157258043600,11.596043701171874,-0.054454803466796875,-0.3825463652610779,1.1698086261749268
1746401157268043800,11.606043701171876,0.083587646484375,-0.37510865926742554,1.1566424369812012
1746401157278043600,11.616043701171876,0.2145528793334961,-0.36359673738479614,1.0970083475112915
1746401157288043800,11.626043701171875,0.33611583709716797,-0.3026197552680969,1.020347237586975
1746401157298043600,11.636043701171875,0.41723155975341797,-0.2953442335128784,0.9182907938957214
1746401157308043800,11.646043701171875,0.4794759750366211,-0.27925223112106323,0.7431449294090271
1746401157318043600,11.656043701171875,0.5036993026733398,-0.22787028551101685,0.5722235441207886
1746401157328043800,11.666043701171875,0.4299955368041992,-0.18648695945739746,0.4144469201564789
1746401157338043600,11.676043701171874,0.3708353042602539,-0.12398511171340942,0.26333361864089966
1746401157348044500,11.68604443359375,0.29032421112060547,-0.013237297534942627,0.16848210990428925
1746401157358044700,11.696044677734376,0.10703849792480469,0.0999109148979187,0.09010065346956253
1746401157368044500,11.70604443359375,-0.023306846618652344,0.22349470853805542,-0.0035553574562072754
1746401157378044700,11.716044677734375,-0.11261272430419922,0.36371999979019165,-0.13034439086914062
1746401157388044500,11.72604443359375,-0.1703939437866211,0.5057971477508545,-0.2606349587440491
1746401157398044700,11.736044677734375,-0.258880615234375,0.64504075050354,-0.38026854395866394
1746401157408044500,11.74604443359375,-0.31351566314697266,0.7037336826324463,-0.4846944510936737
1746401157418044700,11.756044677734375,-0.31280040740966797,0.7855465412139893,-0.5570820569992065
1746401157428044500,11.76604443359375,-0.28072261810302734,0.8053025007247925,-0.6299542784690857
1746401157438044700,11.776044677734374,-0.25818729400634766,0.8256852626800537,-0.7452396154403687
1746401157448043800,11.786043701171875,-0.2811107635498047,0.7774973511695862,-0.8644825220108032
1746401157458043600,11.796043701171875,-0.20111465454101562,0.709376335144043,-0.9375846982002258
1746401157468043800,11.806043701171875,-0.09006118774414062,0.6523795127868652,-1.0019469261169434
1746401157478043600,11.816043701171875,0.00653839111328125,0.6203043460845947,-1.0976488590240479
1746401157488043800,11.826043701171875,0.007239341735839844,0.6124538779258728,-1.1996972560882568
1746401157498043600,11.836043701171874,0.058114051818847656,0.6033881306648254,-1.3261866569519043
1746401157508043800,11.846043701171874,0.0945596694946289,0.6073364615440369,-1.4340606927871704
1746401157518043600,11.856043701171876,0.0760183334350586,0.6638051867485046,-1.562774658203125
1746401157528043800,11.866043701171876,0.06004619598388672,0.7424807548522949,-1.6344127655029297
1746401157538043600,11.876043701171875,0.046685218811035156,0.827719509601593,-1.6520878076553345
1746401157548044500,11.88604443359375,0.08138751983642578,0.8514902591705322,-1.6186137199401855
1746401157558044700,11.896044677734375,0.16648006439208984,0.8507924675941467,-1.5841940641403198
1746401157568044500,11.90604443359375,0.20377159118652344,0.8377929925918579,-1.5073374509811401
1746401157578044700,11.916044677734375,0.22200870513916016,0.831282913684845,-1.481809377670288
1746401157588044500,11.92604443359375,0.19987773895263672,0.8120753765106201,-1.4799082279205322
1746401157598044700,11.936044677734374,0.13997364044189453,0.8001126646995544,-1.4834423065185547
1746401157608043800,11.946043701171876,0.10707950592041016,0.8257446885108948,-1.4507893323898315
1746401157618044000,11.9560439453125,0.09407329559326172,0.9034630060195923,-1.3912516832351685
1746401157628043800,11.966043701171875,0.11055374145507812,0.9211938381195068,-1.278470516204834
1746401157638044000,11.9760439453125,0.13727569580078125,0.8536310195922852,-1.0848464965820312
1746401157648043000,11.98604296875,0.18124103546142578,0.7784056663513184,-0.8866729140281677
1746401157658043000,11.99604296875,0.2853832244873047,0.7010976076126099,-0.7043468356132507
1746401157668043000,12.00604296875,0.35143184661865234,0.6388441324234009,-0.5622851252555847
1746401157678043000,12.01604296875,0.3867502212524414,0.590508222579956,-0.41861504316329956
1746401157688043000,12.02604296875,0.43222713470458984,0.5478684902191162,-0.30590081214904785
1746401157698043000,12.03604296875,0.4306602478027344,0.595641016960144,-0.2329195737838745
1746401157708043000,12.04604296875,0.5211095809936523,0.6130825281143188,-0.14673972129821777
1746401157718043000,12.05604296875,0.5311784744262695,0.5790145397186279,-0.08596920967102051
1746401157728043000,12.06604296875,0.714263916015625,0.6598362922668457,0.006495118141174316
1746401157738043000,12.07604296875,0.9980173110961914,0.8422346115112305,0.13442355394363403
1746401157748043800,12.086043701171874,1.3934240341186523,0.8099721670150757,0.44098061323165894
1746401157758044000,12.0960439453125,2.201418876647949,0.6737402677536011,0.7141323685646057
1746401157768043800,12.106043701171876,3.044015884399414,0.6277037858963013,0.8145331144332886
1746401157778044000,12.1160439453125,3.7320051193237305,0.5111907720565796,0.8238205313682556
1746401157788043800,12.126043701171875,4.063454627990723,0.2833603620529175,0.9746595025062561
1746401157798044000,12.1360439453125,4.342136383056641,-0.22172629833221436,1.0968842506408691
1746401157808043800,12.146043701171875,4.25084114074707,-0.706319272518158,1.2605714797973633
1746401157818044000,12.1560439453125,3.8070592880249023,-1.0993956327438354,1.4330947399139404
1746401157828043800,12.166043701171875,3.170565605163574,-1.2081373929977417,1.4317903518676758
1746401157838044000,12.1760439453125,2.498706817626953,-1.1544334888458252,1.2429039478302002
1746401157848043000,12.18604296875,1.9876995086669922,-0.8935332298278809,0.8870608806610107
1746401157858043000,12.19604296875,1.2847671508789062,-0.5534335374832153,0.390114963054657
1746401157868043000,12.20604296875,0.4797248840332031,-0.43120670318603516,0.17259040474891663
1746401157878043100,12.216043212890625,0.49356842041015625,-0.49326908588409424,0.2337106168270111
1746401157888043000,12.22604296875,-1.0298871994018555,-0.35355257987976074,0.04942333698272705
1746401157898043100,12.236043212890625,-1.584101676940918,-0.24428701400756836,-0.04745924472808838
1746401157908043800,12.246043701171875,-1.9026093482971191,-0.11020863056182861,-0.09203743934631348
1746401157918043600,12.256043701171874,-2.034834861755371,0.06922543048858643,-0.17390143871307373
1746401157928043800,12.266043701171874,-2.0338892936706543,0.10968565940856934,-0.15445023775100708
1746401157938043600,12.276043701171876,-2.0166831016540527,0.024982213973999023,-0.15699559450149536
1746401157948044500,12.28604443359375,-1.7394108772277832,-0.16431832313537598,-0.05903702974319458
1746401157958044700,12.296044677734375,-1.4080734252929688,-0.3107401132583618,-0.027882874011993408
1746401157968044500,12.30604443359375,-1.0610218048095703,-0.38845813274383545,-0.035981833934783936
1746401157978044700,12.316044677734375,-0.6001272201538086,-0.5483893156051636,-0.04271775484085083
1746401157988044500,12.32604443359375,-0.15570354461669922,-0.8095434904098511,0.012142181396484375
1746401157998044700,12.336044677734375,0.3430747985839844,-1.2284972667694092,0.12294217944145203
1746401158008044500,12.34604443359375,0.7073564529418945,-1.5512981414794922,0.15070495009422302
1746401158018044700,12.356044677734374,1.004399299621582,-1.7542396783828735,0.09132321178913116
1746401158028044500,12.36604443359375,1.0381793975830078,-1.8913602828979492,0.03430499881505966
1746401158038044700,12.376044677734376,0.8717670440673828,-2.0025177001953125,-0.014435354620218277
1746401158048043800,12.386043701171875,0.6470699310302734,-2.0770771503448486,-0.09406140446662903
1746401158058043600,12.396043701171875,0.2063131332397461,-2.119870901107788,-0.17097967863082886
1746401158068043800,12.406043701171875,-0.20142364501953125,-2.091949224472046,-0.20624417066574097
1746401158078043600,12.416043701171875,-0.5918359756469727,-1.9576725959777832,-0.27180445194244385
1746401158088043800,12.426043701171874,-0.8748874664306641,-1.7543690204620361,-0.34348466992378235
1746401158098043600,12.436043701171876,-1.1448125839233398,-1.603462815284729,-0.3709091246128082
1746401158108043800,12.446043701171876,-1.3496947288513184,-1.528883934020996,-0.32827743887901306
1746401158118043600,12.456043701171875,-1.5521674156188965,-1.4531551599502563,-0.27784064412117004
1746401158128043800,12.466043701171875,-1.6421833038330078,-1.3596651554107666,-0.19959670305252075
1746401158138043600,12.476043701171875,-1.7062363624572754,-1.2525662183761597,-0.12387055158615112
1746401158148044500,12.48604443359375,-1.7688884735107422,-1.1851534843444824,-0.13651655614376068
1746401158158044700,12.496044677734375,-1.794726848602295,-1.1366379261016846,-0.1628076136112213
1746401158168044500,12.50604443359375,-1.7955870628356934,-1.131251335144043,-0.12361469864845276
1746401158178044700,12.516044677734374,-1.769071102142334,-0.8935978412628174,-0.3405452370643616
1746401158188044500,12.52604443359375,-1.6576523780822754,-0.7135818004608154,-0.4176923334598541
1746401158198044700,12.536044677734376,-1.5858368873596191,-0.5817577838897705,-0.4865097105503082
1746401158208044500,12.54604443359375,-1.4554314613342285,-0.47453856468200684,-0.48700132966041565
1746401158218044700,12.556044677734375,-1.2734556198120117,-0.36389756202697754,-0.5064703822135925
1746401158228044500,12.56604443359375,-1.0782890319824219,-0.24291062355041504,-0.47114649415016174
1746401158238044700,12.576044677734375,-0.9720916748046875,-0.11626338958740234,-0.42211082577705383
1746401158248043800,12.586043701171874,-0.9137191772460938,0.00023555755615234375,-0.39253416657447815
1746401158258043600,12.596043701171874,-0.8788242340087891,0.20598149299621582,-0.4240669012069702
1746401158268043800,12.606043701171876,-0.7786445617675781,0.4000225067138672,-0.4193381071090698
1746401158278043600,12.616043701171876,-0.7163839340209961,0.6574006080627441,-0.41389715671539307
1746401158288043800,12.626043701171875,-0.6062936782836914,0.8571741580963135,-0.4259366989135742
1746401158298043600,12.636043701171875,-0.5061407089233398,1.01942777633667,-0.40323787927627563
1746401158308043800,12.646043701171875,-0.3900108337402344,1.1046488285064697,-0.39510083198547363
1746401158318043600,12.656043701171875,-0.2403402328491211,1.1992933750152588,-0.36266303062438965
1746401158328043800,12.666043701171875,-0.15752029418945312,1.2932038307189941,-0.37060725688934326
